Folder: 3D-Filament-Dyes/Data_Processing/Tensile-Data (part 12)

File: Sequence_35.csv
General : Start date,"10/29/2024 10:33 AM"
General : End date,"10/29/2024 10:33 AM"
Specimen notes : Specimen note 1,"Day 2, purple, 215, batch 12, seq 35"
Test : Rate 1,"5.00000",mm/min

Time,Extension,Load
(s),(mm),(N)
"0.00000","0.00010","0.12741"
"0.20000","0.01351","16.81806"
"0.40000","0.03407","58.29472"
"0.60000","0.05221","89.46882"
"0.80000","0.06864","116.582"
"1.00000","0.08547","143.342"
"1.20000","0.10231","170.883"
"1.40000","0.11894","198.964"
"1.60000","0.13527","226.112"
"1.80000","0.15230","252.814"
"2.00000","0.16893","280.556"
"2.20000","0.18556","308.139"
"2.40000","0.20229","336.182"
"2.60000","0.21933","363.934"
"2.80000","0.23576","390.992"
"3.00000","0.25198","416.325"
"3.20000","0.26912","443.555"
"3.40000","0.28555","470.046"
"3.60000","0.30198","496.367"
"3.80000","0.31881","522.353"
"4.00000","0.33564","549.265"
"4.20000","0.35197","574.689"
"4.40000","0.36860","600.701"
"4.60000","0.38574","626.936"
"4.80000","0.40207","651.854"
"5.00000","0.41880","677.586"
"5.20000","0.43573","703.537"
"5.40000","0.45266","729.998"
"5.60000","0.46869","755.106"
"5.80000","0.48552","780.136"
"6.00000","0.50215","806.188"
"6.20000","0.51889","831.721"
"6.40000","0.53521","854.13"
"6.60000","0.55225","879.253"
"6.80000","0.56898","903.186"
"7.00000","0.58501","926.692"
"7.20000","0.60224","951.28"
"7.40000","0.61867","975.775"
"7.60000","0.63571","999.128"
"7.80000","0.65213","1022.82"
"8.00000","0.66917","1046.6"
"8.20000","0.68580","1068.88"
"8.40000","0.70193","1090.97"
"8.60000","0.71906","1113.93"
"8.80000","0.73579","1136.71"
"9.00000","0.75212","1158.67"
"9.20000","0.76855","1181.19"
"9.40000","0.78579","1203.47"
"9.60000","0.80212","1225.22"
"9.80000","0.81855","1247.2"
"10.00000","0.83558","1268.86"
"10.20000","0.85231","1290.39"
"10.40000","0.86864","1309.92"
"10.60000","0.88537","1331.99"
"10.80000","0.90261","1352.95"
"11.00000","0.91894","1373.3"
"11.20000","0.93516","1391.67"
"11.40000","0.95240","1413.37"
"11.60000","0.96923","1433.48"
"11.80000","0.98516","1452.79"
"12.00000","1.00239","1473.41"
"12.20000","1.01892","1492.82"
"12.40000","1.03515","1512.32"
"12.60000","1.05198","1530.17"
"12.80000","1.06882","1549.69"
"13.00000","1.08535","1565.92"
"13.20000","1.10198","1585.04"
"13.40000","1.11901","1604.44"
"13.60000","1.13584","1622.35"
"13.80000","1.15187","1639.68"
"14.00000","1.16870","1657.71"
"14.20000","1.18594","1676.47"
"14.40000","1.20186","1692.95"
"14.60000","1.21870","1709.98"
"14.80000","1.23583","1728.53"
"15.00000","1.25236","1745.2"
"15.20000","1.26849","1761.31"
"15.40000","1.28542","1778.74"
"15.60000","1.30246","1794.92"
"15.80000","1.31868","1810.82"
"16.00000","1.33531","1825.96"
"16.20000","1.35245","1842.35"
"16.40000","1.36888","1857.39"
"16.60000","1.38521","1872.66"
"16.80000","1.40264","1888.75"
"17.00000","1.41887","1904.6"
"17.20000","1.43550","1921.73"
"17.40000","1.45213","1936.33"
"17.60000","1.46907","1952.67"
"17.80000","1.48529","1968.48"
"18.00000","1.50193","1985.67"
"18.20000","1.51926","2003.53"
"18.40000","1.53579","2018.47"
"18.60000","1.55182","2034.03"
"18.80000","1.56905","2050.82"
"19.00000","1.58569","2066.52"
"19.20000","1.60201","2082.51"
"19.40000","1.61875","2096.62"
"19.60000","1.63578","2114.03"
"19.80000","1.65221","2129.41"
"20.00000","1.66864","2145.14"
"20.20000","1.68537","2161.52"
"20.40000","1.70251","2177.86"
"20.60000","1.71853","2193.01"
"20.80000","1.73546","2209.65"
"21.00000","1.75230","2226.14"
"21.20000","1.76883","2241.57"
"21.40000","1.78536","2258.31"
"21.60000","1.80239","2274.34"
"21.80000","1.81892","2289.32"
"22.00000","1.83545","2304.31"
"22.20000","1.85249","2320.76"
"22.40000","1.86912","2336.56"
"22.60000","1.88534","2351.2"
"22.80000","1.90177","2366.53"
"23.00000","1.91911","2382.54"
"23.20000","1.93554","2398.33"
"23.40000","1.95177","2412.56"
"23.60000","1.96880","2428.88"
"23.80000","1.98563","2445.26"
"24.00000","2.00186","2459.78"
"24.20000","2.01900","2476.28"
"24.40000","2.03603","2492.68"
"24.60000","2.05226","2507.25"
"24.80000","2.06889","2521.67"
"25.00000","2.08552","2538.94"
"25.20000","2.10256","2553.26"
"25.40000","2.11848","2567.93"
"25.60000","2.13551","2584.51"
"25.80000","2.15235","2598.46"
"26.00000","2.16847","2613.45"
"26.20000","2.18531","2628.94"
"26.40000","2.20254","2645.3"
"26.60000","2.21887","2659.39"
"26.80000","2.23540","2676.08"
"27.00000","2.25244","2691.83"
"27.20000","2.26897","2707.4"
"27.40000","2.28539","2721.71"
"27.60000","2.30213","2737.71"
"27.80000","2.31916","2753.87"
"28.00000","2.33539","2769.25"
"28.20000","2.35192","2784.5"
"28.40000","2.36915","2799.75"
"28.60000","2.38548","2815.45"
"28.80000","2.40181","2830.61"
"29.00000","2.41895","2846.61"
"29.20000","2.43558","2860.96"
"29.40000","2.45211","2877"
"29.60000","2.46884","2890.72"
"29.80000","2.48577","2907.14"
"30.00000","2.50261","2922.99"
"30.20000","2.51863","2936.56"
"30.40000","2.53587","2951.94"
"30.60000","2.55220","2967.03"
"30.80000","2.56883","2981.95"
"31.00000","2.58576","2996.66"
"31.20000","2.60229","3011.79"
"31.40000","2.61872","3027.43"
"31.60000","2.63525","3041.78"
"31.80000","2.65228","3057.49"
"32.00000","2.66881","3072.02"
"32.20000","2.68534","3087.04"
"32.40000","2.70218","3102.16"
"32.60000","2.71911","3117.59"
"32.80000","2.73534","3131.85"
"33.00000","2.75217","3146.62"
"33.20000","2.76920","3161.82"
"33.40000","2.78543","3175.28"
"33.60000","2.80206","3189.64"
"33.80000","2.81910","3204.94"
"34.00000","2.83593","3219.7"
"34.20000","2.85186","3233.06"
"34.40000","2.86879","3248.22"
"34.60000","2.88512","3262.09"
"34.80000","2.90215","3277.51"
"35.00000","2.91848","3290.34"
"35.20000","2.93561","3305.65"
"35.40000","2.95255","3320.18"
"35.60000","2.96857","3332.14"
"35.80000","2.98581","3348.34"
"36.00000","3.00224","3363.21"
"36.20000","3.01877","3375.48"
"36.40000","3.03550","3390.41"
"36.60000","3.05254","3404.61"
"36.80000","3.06876","3418.66"
"37.00000","3.08519","3432.61"
"37.20000","3.10223","3447.32"
"37.40000","3.11926","3461.73"
"37.60000","3.13529","3473.67"
"37.80000","3.15222","3488.68"
"38.00000","3.16905","3502.57"
"38.20000","3.18538","3516"
"38.40000","3.20201","3528.96"
"38.60000","3.21905","3543.75"
"38.80000","3.23568","3555.9"
"39.00000","3.25191","3568.24"
"39.20000","3.26874","3581.14"
"39.40000","3.28577","3594.63"
"39.60000","3.30200","3606.29"
"39.80000","3.31873","3619.39"
"40.00000","3.33566","3632.08"
"40.20000","3.35240","3643.47"
"40.40000","3.36852","3654.29"
"40.60000","3.38596","3668.31"
"40.80000","3.40219","3678.77"
"41.00000","3.41882","3688.68"
"41.20000","3.43565","3699.41"
"41.40000","3.45248","3710.94"
"41.60000","3.46861","3718.34"
"41.80000","3.48524","3727.33"
"42.00000","3.50258","3737.33"
"42.20000","3.51901","3744.75"
"42.40000","3.53514","3750.75"
"42.60000","3.55237","3757.56"
"42.80000","3.56900","3762.87"
"43.00000","3.58533","3766.03"
"43.20000","3.60216","3769.67"
"43.40000","3.61910","3771.46"
"43.60000","3.63573","3771.07"
"43.80000","3.65196","3766.13"
"44.00000","3.66889","3760.6"
"44.20000","3.68592","3750.89"
"44.40000","3.70205","3731.6"
"44.60000","3.71888","3702.91"
"44.80000","3.73561","3635.46"
"44.87600","3.74206","2972.18"
"44.88400","3.74287","2178.83"

File: Sequence_36.csv
General : Start date,"10/29/2024 10:35 AM"
General : End date,"10/29/2024 10:36 AM"
Specimen notes : Specimen note 1,"Day 2, red, 215, batch 9, seq 36"
Test : Rate 1,"5.00000",mm/min

Time,Extension,Load
(s),(mm),(N)
"0.00000","0.00000","-0.42309"
"0.20000","0.01018","10.32922"
"0.40000","0.03276","55.89745"
"0.60000","0.04929","86.95480"
"0.80000","0.06652","117.09"
"1.00000","0.08366","147.782"
"1.20000","0.10039","176.979"
"1.40000","0.11652","205.143"
"1.60000","0.13365","235.313"
"1.80000","0.15028","263.228"
"2.00000","0.16651","290.664"
"2.20000","0.18334","318.821"
"2.40000","0.20038","347.271"
"2.60000","0.21711","375.63"
"2.80000","0.23334","403.729"
"3.00000","0.25057","431.724"
"3.20000","0.26720","458.449"
"3.40000","0.28323","483.526"
"3.60000","0.30016","510.784"
"3.80000","0.31700","538.491"
"4.00000","0.33332","564.794"
"4.20000","0.34975","591.494"
"4.40000","0.36699","618.326"
"4.60000","0.38342","644.542"
"4.80000","0.39985","670.151"
"5.00000","0.41688","695.615"
"5.20000","0.43361","721.295"
"5.40000","0.45004","747.418"
"5.60000","0.46678","771.589"
"5.80000","0.48381","798.709"
"6.00000","0.50034","821.634"
"6.20000","0.51667","846.274"
"6.40000","0.53340","870.732"
"6.60000","0.55023","894.668"
"6.80000","0.56646","917.087"
"7.00000","0.58349","940.697"
"7.20000","0.60002","963.278"
"7.40000","0.61655","986.602"
"7.60000","0.63308","1009.52"
"7.80000","0.65032","1033.89"
"8.00000","0.66655","1055.82"
"8.20000","0.68348","1079.51"
"8.40000","0.70042","1100.6"
"8.60000","0.71705","1122.57"
"8.80000","0.73327","1142.97"
"9.00000","0.75021","1165.6"
"9.20000","0.76714","1187.21"
"9.40000","0.78357","1208.55"
"9.60000","0.79970","1229.02"
"9.80000","0.81693","1250.06"
"10.00000","0.83366","1269.42"
"10.20000","0.84979","1288.8"
"10.40000","0.86672","1308.54"
"10.60000","0.88356","1328.7"
"10.80000","0.90009","1346.72"
"11.00000","0.91662","1365.25"
"11.20000","0.93345","1385.34"
"11.40000","0.95058","1403.73"
"11.60000","0.96651","1423.11"
"11.80000","0.98375","1442.58"
"12.00000","1.00028","1460.66"
"12.20000","1.01671","1479.94"
"12.40000","1.03344","1498.21"
"12.60000","1.05037","1516.9"
"12.80000","1.06660","1536.17"
"13.00000","1.08293","1554.65"
"13.20000","1.10016","1574.4"
"13.40000","1.11669","1593.43"
"13.60000","1.13322","1612.86"
"13.80000","1.15006","1631.69"
"14.00000","1.16729","1651.04"
"14.20000","1.18352","1667.46"
"14.40000","1.19975","1684.56"
"14.60000","1.21728","1702.75"
"14.80000","1.23351","1720"
"15.00000","1.24984","1736.75"
"15.20000","1.26688","1754.91"
"15.40000","1.28381","1772.66"
"15.60000","1.29983","1789"
"15.80000","1.31677","1806.79"
"16.00000","1.33330","1824.4"
"16.20000","1.35043","1842.42"
"16.40000","1.36636","1859.76"
"16.60000","1.38370","1877.55"
"16.80000","1.40033","1894.78"
"17.00000","1.41655","1911.86"
"17.20000","1.43349","1928.07"
"17.40000","1.45032","1945.18"
"17.60000","1.46685","1961.59"
"17.80000","1.48338","1977.96"
"18.00000","1.50031","1994.41"
"18.20000","1.51674","2011.07"
"18.40000","1.53317","2027.72"
"18.60000","1.55021","2044.91"
"18.80000","1.56724","2061.12"
"19.00000","1.58327","2077.04"
"19.20000","1.60010","2092.84"
"19.40000","1.61713","2108.93"
"19.60000","1.63346","2124.7"
"19.80000","1.64989","2141.77"
"20.00000","1.66693","2158.36"
"20.20000","1.68366","2175.67"
"20.40000","1.70009","2192.22"
"20.60000","1.71662","2208.82"
"20.80000","1.73365","2226.01"
"21.00000","1.75018","2242.34"
"21.20000","1.76651","2258.84"
"21.40000","1.78364","2275.25"
"21.60000","1.80028","2291.25"
"21.80000","1.81650","2305.79"
"22.00000","1.83374","2323.64"
"22.20000","1.85017","2339.91"
"22.40000","1.86690","2356.33"
"22.60000","1.88353","2372.61"
"22.80000","1.90036","2389.64"
"23.00000","1.91679","2405.81"
"23.20000","1.93302","2420.86"
"23.40000","1.95005","2438.55"
"23.60000","1.96699","2455.7"
"23.80000","1.98311","2471.53"
"24.00000","2.00005","2489.68"
"24.20000","2.01698","2505.62"
"24.40000","2.03341","2521.02"
"24.60000","2.04994","2537.17"
"24.80000","2.06697","2554.29"
"25.00000","2.08391","2570.02"
"25.20000","2.09993","2585.07"
"25.40000","2.11687","2602.67"
"25.60000","2.13360","2618.17"
"25.80000","2.15013","2635.53"
"26.00000","2.16656","2650.6"
"26.20000","2.18349","2668.07"
"26.40000","2.20022","2684.41"
"26.60000","2.21625","2699.64"
"26.80000","2.23369","2717.26"
"27.00000","2.25012","2733.65"
"27.20000","2.26675","2748.67"
"27.40000","2.28348","2765.1"
"27.60000","2.30021","2780.74"
"27.80000","2.31674","2797.35"
"28.00000","2.33327","2812.69"
"28.20000","2.35041","2830.42"
"28.40000","2.36704","2845.7"
"28.60000","2.38306","2861.41"
"28.80000","2.40020","2877.83"
"29.00000","2.41703","2893.44"
"29.20000","2.43316","2908.74"
"29.40000","2.44999","2924.35"
"29.60000","2.46692","2940.54"
"29.80000","2.48356","2957.1"
"30.00000","2.49998","2972.84"
"30.20000","2.51682","2989.93"
"30.40000","2.53395","3005.23"
"30.60000","2.54998","3020.41"
"30.80000","2.56691","3036.42"
"31.00000","2.58364","3052.97"
"31.20000","2.60007","3068.95"
"31.40000","2.61670","3084.65"
"31.60000","2.63374","3101.32"
"31.80000","2.64986","3115.78"
"32.00000","2.66660","3131.49"
"32.20000","2.68353","3147.72"
"32.40000","2.70016","3163.96"
"32.60000","2.71649","3178.64"
"32.80000","2.73322","3195.02"
"33.00000","2.75046","3211.87"
"33.20000","2.76689","3226.64"
"33.40000","2.78311","3241.5"
"33.60000","2.80045","3258.67"
"33.80000","2.81698","3275.05"
"34.00000","2.83341","3289.67"
"34.20000","2.85014","3305.92"
"34.40000","2.86687","3321.11"
"34.60000","2.88350","3337.63"
"34.80000","2.89983","3352.49"
"35.00000","2.91646","3367.96"
"35.20000","2.93350","3384.79"
"35.40000","2.94973","3398.74"
"35.60000","2.96706","3414.84"
"35.80000","2.98359","3429.67"
"36.00000","3.00002","3444.75"
"36.20000","3.01665","3459.79"
"36.40000","3.03379","3476.68"
"36.60000","3.05012","3492.28"
"36.80000","3.06675","3507.73"
"37.00000","3.08368","3523.54"
"37.20000","3.10021","3538.66"
"37.40000","3.11674","3553.07"
"37.60000","3.13327","3568.79"
"37.80000","3.15041","3584.95"
"38.00000","3.16684","3599.34"
"38.20000","3.18316","3613.4"
"38.40000","3.20040","3630"
"38.60000","3.21683","3643.7"
"38.80000","3.23326","3658.02"
"39.00000","3.25029","3673.58"
"39.20000","3.26702","3688.65"
"39.40000","3.28335","3702.68"
"39.60000","3.29998","3717.64"
"39.80000","3.31692","3731.99"
"40.00000","3.33375","3747.17"
"40.20000","3.34967","3760.96"
"40.40000","3.36691","3775.66"
"40.60000","3.38364","3789.39"
"40.80000","3.39987","3803.52"
"41.00000","3.41701","3818.62"
"41.20000","3.43374","3832.32"
"41.40000","3.45017","3846.73"
"41.60000","3.46670","3860.94"
"41.80000","3.48373","3875.12"
"42.00000","3.50026","3888.97"
"42.20000","3.51639","3902.24"
"42.40000","3.53362","3916.67"
"42.60000","3.55046","3930.73"
"42.80000","3.56658","3943.12"
"43.00000","3.58331","3957.52"
"43.20000","3.60055","3972.03"
"43.40000","3.61668","3983.8"
"43.60000","3.63341","3996.76"
"43.80000","3.65024","4010.22"
"44.00000","3.66707","4023.52"
"44.20000","3.68330","4035.56"
"44.40000","3.70003","4048.94"
"44.60000","3.71687","4062.14"
"44.80000","3.73360","4075.54"
"45.00000","3.74993","4086.43"
"45.20000","3.76696","4099.49"
"45.40000","3.78329","4111.25"
"45.60000","3.79972","4123.68"
"45.80000","3.81695","4136.2"
"46.00000","3.83348","4147.8"
"46.20000","3.85001","4159.32"
"46.40000","3.86665","4170.87"
"46.60000","3.88378","4183.54"
"46.80000","3.90021","4193.41"
"47.00000","3.91684","4204.32"
"47.20000","3.93357","4216.24"
"47.40000","3.95051","4226.81"
"47.60000","3.96663","4236.51"
"47.80000","3.98326","4246.09"
"48.00000","4.00060","4257.46"
"48.20000","4.01663","4266.72"
"48.40000","4.03316","4275.94"
"48.60000","4.05029","4286.29"
"48.80000","4.06692","4295.56"
"49.00000","4.08315","4303.5"
"49.20000","4.09998","4312.19"
"49.40000","4.11712","4321"
"49.60000","4.13345","4328.93"
"49.80000","4.14988","4335.04"
"50.00000","4.16701","4343.3"
"50.20000","4.18364","4348.77"
"50.40000","4.19987","4352.84"
"50.60000","4.21700","4358.15"
"50.80000","4.23323","4360.68"
"51.00000","4.24996","4363.32"
"51.20000","4.26680","4364.8"
"51.40000","4.28363","4365.42"
"51.60000","4.30006","4363.26"
"51.80000","4.31639","4360.12"
"52.00000","4.33372","4356.29"
"52.20000","4.35056","4349.33"
"52.40000","4.36638","4338.95"
"52.60000","4.38362","4325.97"
"52.80000","4.40055","4310.7"
"53.00000","4.41657","4288.75"
"53.20000","4.43331","4260.79"
"53.40000","4.45024","4226.06"
"53.60000","4.46707","4171.93"
"53.75200","4.47927","3863.7"
"53.76000","4.48008","3085.33"
"53.76600","4.48068","2383.83"

File: Sequence_37.csv
General : Start date,"10/29/2024 10:38 AM"
General : End date,"10/29/2024 10:39 AM"
Specimen notes : Specimen note 1,"Day 2, red, 215, batch 7, seq 37"
Test : Rate 1,"5.00000",mm/min

Time,Extension,Load
(s),(mm),(N)
"0.00000","0.00000","-0.34632"
"0.20000","0.01068","12.56852"
"0.40000","0.03286","56.73894"
"0.60000","0.04969","87.27682"
"0.80000","0.06693","115.824"
"1.00000","0.08406","145.256"
"1.20000","0.10009","173.729"
"1.40000","0.11692","201.724"
"1.60000","0.13385","231.246"
"1.80000","0.15038","259.654"
"2.00000","0.16661","285.534"
"2.20000","0.18375","314.446"
"2.40000","0.20038","342.591"
"2.60000","0.21671","369.858"
"2.80000","0.23354","397.526"
"3.00000","0.25027","426.576"
"3.20000","0.26710","453.764"
"3.40000","0.28333","479.255"
"3.60000","0.30067","508.017"
"3.80000","0.31710","535.005"
"4.00000","0.33343","561.5"
"4.20000","0.35036","587.64"
"4.40000","0.36699","615.066"
"4.60000","0.38342","640.749"
"4.80000","0.39995","666.539"
"5.00000","0.41708","692.279"
"5.20000","0.43351","717.394"
"5.40000","0.44984","741.891"
"5.60000","0.46698","768.442"
"5.80000","0.48361","792.892"
"6.00000","0.50024","818.187"
"6.20000","0.51707","844.143"
"6.40000","0.53400","868.834"
"6.60000","0.55033","892.133"
"6.80000","0.56676","915.794"
"7.00000","0.58349","940.545"
"7.20000","0.60043","964.193"
"7.40000","0.61655","987.416"
"7.60000","0.63359","1009.85"
"7.80000","0.65032","1033.5"
"8.00000","0.66645","1055.94"
"8.20000","0.68338","1078.92"
"8.40000","0.70031","1102.14"
"8.60000","0.71684","1125.15"
"8.80000","0.73358","1146.75"
"9.00000","0.75061","1170.03"
"9.20000","0.76714","1191.7"
"9.40000","0.78347","1212.43"
"9.60000","0.80030","1235.2"
"9.80000","0.81723","1256.54"
"10.00000","0.83356","1276.51"
"10.20000","0.84989","1296.17"
"10.40000","0.86723","1317.67"
"10.60000","0.88366","1336.93"
"10.80000","0.89989","1356.53"
"11.00000","0.91692","1377.09"
"11.20000","0.93365","1395.98"
"11.40000","0.95008","1415.12"
"11.60000","0.96671","1434.24"
"11.80000","0.98365","1454.29"
"12.00000","1.00058","1474.75"
"12.20000","1.01660","1492.18"
"12.40000","1.03394","1512.17"
"12.60000","1.05047","1530.54"
"12.80000","1.06660","1549.1"
"13.00000","1.08363","1567.6"
"13.20000","1.10036","1585.67"
"13.40000","1.11669","1604.38"
"13.60000","1.13322","1622.15"
"13.80000","1.15026","1642.08"
"14.00000","1.16689","1661.42"
"14.20000","1.18352","1679.65"
"14.40000","1.20025","1697.76"
"14.60000","1.21728","1715.85"
"14.80000","1.23341","1733.55"
"15.00000","1.24984","1750.91"
"15.20000","1.26738","1769.98"
"15.40000","1.28361","1788.09"
"15.60000","1.30014","1805.76"
"15.80000","1.31697","1824.73"
"16.00000","1.33390","1844.08"
"16.20000","1.34983","1860.45"
"16.40000","1.36676","1878.83"
"16.60000","1.38359","1896.74"
"16.80000","1.40043","1915.01"
"17.00000","1.41655","1931.06"
"17.20000","1.43379","1950.37"
"17.40000","1.45042","1967.83"
"17.60000","1.46665","1985.28"
"17.80000","1.48368","2002.85"
"18.00000","1.50041","2021"
"18.20000","1.51684","2038.03"
"18.40000","1.53347","2055.61"
"18.60000","1.55041","2072.58"
"18.80000","1.56684","2089.63"
"19.00000","1.58327","2107.32"
"19.20000","1.60020","2125.43"
"19.40000","1.61723","2141.63"
"19.60000","1.63336","2158.01"
"19.80000","1.65040","2175.78"
"20.00000","1.66713","2192.45"
"20.20000","1.68335","2208.88"
"20.40000","1.69999","2225.91"
"20.60000","1.71732","2243.39"
"20.80000","1.73375","2260.12"
"21.00000","1.75018","2277.78"
"21.20000","1.76671","2293.36"
"21.40000","1.78395","2311.17"
"21.60000","1.80007","2328.26"
"21.80000","1.81660","2345.1"
"22.00000","1.83384","2362.21"
"22.20000","1.85027","2378"
"22.40000","1.86640","2394.72"
"22.60000","1.88383","2412.71"
"22.80000","1.89996","2429.11"
"23.00000","1.91689","2446.99"
"23.20000","1.93383","2463.34"
"23.40000","1.95056","2480.8"
"23.60000","1.96679","2497.52"
"23.80000","1.98322","2513.81"
"24.00000","2.00035","2531.14"
"24.20000","2.01698","2547.67"
"24.40000","2.03311","2562.52"
"24.60000","2.05034","2580.35"
"24.80000","2.06697","2596.85"
"25.00000","2.08330","2612.7"
"25.20000","2.10014","2629.33"
"25.40000","2.11717","2646.57"
"25.60000","2.13390","2663.53"
"25.80000","2.15013","2678.35"
"26.00000","2.16696","2695.63"
"26.20000","2.18379","2711.3"
"26.40000","2.20012","2728.26"
"26.60000","2.21686","2744.56"
"26.80000","2.23349","2760.11"
"27.00000","2.25002","2777.48"
"27.20000","2.26655","2793.2"
"27.40000","2.28398","2809.72"
"27.60000","2.30021","2826.33"
"27.80000","2.31694","2841.64"
"28.00000","2.33357","2857.61"
"28.20000","2.35041","2874.27"
"28.40000","2.36694","2890.39"
"28.60000","2.38327","2905.25"
"28.80000","2.40020","2921.61"
"29.00000","2.41703","2937.58"
"29.20000","2.43316","2952.58"
"29.40000","2.45039","2969.56"
"29.60000","2.46713","2985.23"
"29.80000","2.48335","3000.22"
"30.00000","2.50029","3016.24"
"30.20000","2.51692","3032.08"
"30.40000","2.53375","3048.25"
"30.60000","2.55018","3063.65"
"30.80000","2.56691","3078.83"
"31.00000","2.58405","3095.16"
"31.20000","2.59987","3109.94"
"31.40000","2.61711","3125.41"
"31.60000","2.63394","3141.15"
"31.80000","2.65027","3156.58"
"32.00000","2.66670","3171.63"
"32.20000","2.68403","3187.65"
"32.40000","2.70016","3203.23"
"32.60000","2.71659","3218.27"
"32.80000","2.73362","3234.14"
"33.00000","2.75036","3249.99"
"33.20000","2.76658","3264.47"
"33.40000","2.78342","3280.81"
"33.60000","2.80055","3297.16"
"33.80000","2.81688","3310.66"
"34.00000","2.83331","3326.65"
"34.20000","2.85054","3342.78"
"34.40000","2.86707","3356.34"
"34.60000","2.88340","3370.71"
"34.80000","2.90044","3386.03"
"35.00000","2.91717","3402.15"
"35.20000","2.93340","3416.3"
"35.40000","2.94993","3430.8"
"35.60000","2.96656","3446.7"
"35.80000","2.98359","3461.84"
"36.00000","2.99982","3475.98"
"36.20000","3.01726","3493.18"
"36.40000","3.03379","3507.12"
"36.60000","3.05022","3521.94"
"36.80000","3.06685","3535.05"
"37.00000","3.08368","3551.5"
"37.20000","3.10031","3565.84"
"37.40000","3.11714","3580.66"
"37.60000","3.13398","3595.54"
"37.80000","3.15031","3610.1"
"38.00000","3.16684","3624.01"
"38.20000","3.18337","3639.02"
"38.40000","3.20040","3654.12"
"38.60000","3.21673","3668.21"
"38.80000","3.23336","3682.2"
"39.00000","3.25059","3697.33"
"39.20000","3.26672","3711.94"
"39.40000","3.28345","3725.77"
"39.60000","3.30039","3741.09"
"39.80000","3.31712","3755.32"
"40.00000","3.33335","3768.96"
"40.20000","3.35008","3783.13"
"40.40000","3.36711","3797.68"
"40.60000","3.38374","3811.46"
"40.80000","3.39987","3824.46"
"41.00000","3.41711","3839.91"
"41.20000","3.43374","3853.31"
"41.40000","3.44986","3866.33"
"41.60000","3.46710","3880.34"
"41.80000","3.48363","3894.44"
"42.00000","3.50016","3907.68"
"42.20000","3.51679","3920.72"
"42.40000","3.53362","3934.17"
"42.60000","3.55056","3947.9"
"42.80000","3.56628","3959.93"
"43.00000","3.58382","3974.41"
"43.20000","3.60075","3987.39"
"43.40000","3.61668","3998.53"
"43.60000","3.63361","4012.73"
"43.80000","3.65064","4025.57"
"44.00000","3.66687","4037.45"
"44.20000","3.68340","4049.73"
"44.40000","3.70054","4062.76"
"44.60000","3.71717","4075.28"
"44.80000","3.73330","4086.03"
"45.00000","3.75023","4099.12"
"45.20000","3.76726","4111.8"
"45.40000","3.78349","4121.54"
"45.60000","3.80002","4131.75"
"45.80000","3.81706","4144.01"
"46.00000","3.83338","4154.12"
"46.20000","3.84971","4164.33"
"46.40000","3.86715","4175.48"
"46.60000","3.88358","4184.8"
"46.80000","3.90011","4194.95"
"47.00000","3.91684","4203.34"
"47.20000","3.93398","4213.11"
"47.40000","3.95030","4220.83"
"47.60000","3.96683","4229.5"
"47.80000","3.98367","4236.53"
"48.00000","4.00040","4243.95"
"48.20000","4.01673","4248.42"
"48.40000","4.03366","4253.66"
"48.60000","4.05080","4258.6"
"48.80000","4.06662","4259.72"
"49.00000","4.08335","4260.37"
"49.20000","4.10039","4261.14"
"49.40000","4.11692","4260.06"
"49.60000","4.13324","4256.42"
"49.80000","4.15028","4252.71"
"50.00000","4.16721","4246.59"
"50.20000","4.18334","4237.84"
"50.40000","4.20007","4228.33"
"50.60000","4.21721","4219.75"
"50.80000","4.23374","4208.29"
"51.00000","4.25006","4193.71"
"51.20000","4.26710","4181.72"
"51.40000","4.28333","4166.67"
"51.60000","4.30006","4151.83"
"51.80000","4.31699","4135.55"
"52.00000","4.33372","4119.06"
"52.20000","4.35025","4101.07"
"52.40000","4.36658","4081.02"
"52.60000","4.38392","4062.09"
"52.80000","4.40055","4040.51"
"53.00000","4.41657","4016.77"
"53.20000","4.43381","3993.06"
"53.40000","4.45064","3966.71"
"53.60000","4.46687","3933.74"
"53.80000","4.48350","3890.9"
"53.99600","4.50023","3484.64"
"54.00400","4.50094","2712.29"
"54.00800","4.50144","2272.44"