Folder: 3D-Filament-Dyes/Data_Processing/Tensile-Data (part 4)

File: Sequence_11.csv
General : Start date,"10/22/2024 9:41 AM"
General : End date,"10/22/2024 9:42 AM"
Specimen notes : Specimen note 1,"red, 200, batch 3, seq 11"
Test : Rate 1,"5.00000",mm/min

Time,Extension,Load
(s),(mm),(N)
"0.00000","0.00000","0.31678"
"0.20000","0.01008","11.61442"
"0.40000","0.03286","57.71466"
"0.60000","0.04949","88.88014"
"0.80000","0.06683","118.946"
"1.00000","0.08396","140.974"
"1.20000","0.10019","169.517"
"1.40000","0.11702","198.131"
"1.60000","0.13385","228.658"
"1.80000","0.15008","257.839"
"2.00000","0.16681","286.676"
"2.20000","0.18395","317.571"
"2.40000","0.20018","345.22"
"2.60000","0.21681","375.796"
"2.80000","0.23364","405.825"
"3.00000","0.25037","434.957"
"3.20000","0.26660","463.745"
"3.40000","0.28353","492.717"
"3.60000","0.30067","522.287"
"3.80000","0.31679","551.705"
"4.00000","0.33343","579.432"
"4.20000","0.35016","609.019"
"4.40000","0.36719","638.628"
"4.60000","0.38312","666.882"
"4.80000","0.40025","696.554"
"5.00000","0.41698","724.641"
"5.20000","0.43341","752.585"
"5.40000","0.45025","782.476"
"5.60000","0.46728","811.143"
"5.80000","0.48351","838.271"
"6.00000","0.50004","866.128"
"6.20000","0.51707","894.423"
"6.40000","0.53380","923.344"
"6.60000","0.55013","949.882"
"6.80000","0.56686","978.232"
"7.00000","0.58390","1006.95"
"7.20000","0.60013","1034.2"
"7.40000","0.61666","1061.33"
"7.60000","0.63369","1088.57"
"7.80000","0.65012","1115.99"
"8.00000","0.66635","1142.53"
"8.20000","0.68378","1171.42"
"8.40000","0.70042","1199.45"
"8.60000","0.71695","1226.37"
"8.80000","0.73368","1253.72"
"9.00000","0.75031","1280.3"
"9.20000","0.76714","1307.74"
"9.40000","0.78327","1332.72"
"9.60000","0.80050","1361.36"
"9.80000","0.81703","1387.87"
"10.00000","0.83336","1414.32"
"10.20000","0.85009","1440.3"
"10.40000","0.86703","1467.81"
"10.60000","0.88366","1494.34"
"10.80000","0.90019","1519.34"
"11.00000","0.91712","1546.51"
"11.20000","0.93335","1572.78"
"11.40000","0.94988","1597.78"
"11.60000","0.96681","1623.74"
"11.80000","0.98385","1650.85"
"12.00000","0.99997","1675.53"
"12.20000","1.01671","1700.9"
"12.40000","1.03384","1727.5"
"12.60000","1.05027","1753.18"
"12.80000","1.06660","1776.28"
"13.00000","1.08353","1802.66"
"13.20000","1.10057","1827.9"
"13.40000","1.11649","1851.35"
"13.60000","1.13353","1877.17"
"13.80000","1.15006","1902.69"
"14.00000","1.16719","1928.5"
"14.20000","1.18322","1952.76"
"14.40000","1.20035","1978.6"
"14.60000","1.21718","2002.73"
"14.80000","1.23321","2027.2"
"15.00000","1.25034","2053.04"
"15.20000","1.26708","2075.67"
"15.40000","1.28351","2099.39"
"15.60000","1.30004","2124.76"
"15.80000","1.31717","2148.66"
"16.00000","1.33350","2172.3"
"16.20000","1.34993","2194.95"
"16.40000","1.36666","2218.88"
"16.60000","1.38390","2243.9"
"16.80000","1.39992","2267.42"
"17.00000","1.41706","2290.92"
"17.20000","1.43389","2314.95"
"17.40000","1.45012","2338.57"
"17.60000","1.46675","2360.73"
"17.80000","1.48368","2384.81"
"18.00000","1.50031","2407.19"
"18.20000","1.51654","2429.91"
"18.40000","1.53347","2454.43"
"18.60000","1.55051","2476.93"
"18.80000","1.56684","2499.85"
"19.00000","1.58347","2522.98"
"19.20000","1.60050","2546.01"
"19.40000","1.61713","2567.61"
"19.60000","1.63336","2590.48"
"19.80000","1.65060","2612.32"
"20.00000","1.66693","2635.46"
"20.20000","1.68335","2657.43"
"20.40000","1.70019","2678.97"
"20.60000","1.71702","2701.39"
"20.80000","1.73345","2723.15"
"21.00000","1.74998","2745.22"
"21.20000","1.76711","2767.54"
"21.40000","1.78364","2789.28"
"21.60000","1.79987","2810.92"
"21.80000","1.81691","2832.93"
"22.00000","1.83404","2855.16"
"22.20000","1.85007","2876.89"
"22.40000","1.86680","2897.38"
"22.60000","1.88373","2921.01"
"22.80000","1.90046","2942.25"
"23.00000","1.91679","2961.1"
"23.20000","1.93363","2983.04"
"23.40000","1.95046","3005.16"
"23.60000","1.96679","3023.03"
"23.80000","1.98352","3044.6"
"24.00000","2.00025","3064.86"
"24.20000","2.01688","3084.92"
"24.40000","2.03311","3105.8"
"24.60000","2.05044","3126.66"
"24.80000","2.06677","3146.85"
"25.00000","2.08361","3166.55"
"25.20000","2.10034","3187.31"
"25.40000","2.11717","3206.12"
"25.60000","2.13350","3225.83"
"25.80000","2.15003","3244.76"
"26.00000","2.16706","3265.4"
"26.20000","2.18379","3285.3"
"26.40000","2.19982","3302.96"
"26.60000","2.21696","3323.69"
"26.80000","2.23369","3342.58"
"27.00000","2.24992","3361.53"
"27.20000","2.26685","3380.15"
"27.40000","2.28368","3400.07"
"27.60000","2.30031","3418.93"
"27.80000","2.31664","3436.85"
"28.00000","2.33357","3455.25"
"28.20000","2.35061","3474.14"
"28.40000","2.36653","3490.41"
"28.60000","2.38377","3509.78"
"28.80000","2.40050","3527.63"
"29.00000","2.41673","3545.68"
"29.20000","2.43336","3562.54"
"29.40000","2.45049","3581.28"
"29.60000","2.46672","3597.14"
"29.80000","2.48315","3614.36"
"30.00000","2.50019","3631.48"
"30.20000","2.51722","3649.54"
"30.40000","2.53325","3665.03"
"30.60000","2.55028","3682.37"
"30.80000","2.56742","3699.87"
"31.00000","2.58354","3715.96"
"31.20000","2.59997","3731.63"
"31.40000","2.61711","3746.85"
"31.60000","2.63354","3763.25"
"31.80000","2.65017","3778.21"
"32.00000","2.66690","3677.2"
"32.20000","2.68373","3704.47"
"32.40000","2.70006","3723.09"
"32.60000","2.71669","3741.67"
"32.80000","2.73362","3762.29"
"33.00000","2.75056","3779.63"
"33.20000","2.76638","3795.68"
"33.40000","2.78382","3813.62"
"33.60000","2.80035","3789.23"
"33.80000","2.81668","3810.94"
"34.00000","2.83371","3827.98"
"34.20000","2.85044","3845.59"
"34.40000","2.86687","3862.95"
"34.60000","2.88350","3879.81"
"34.80000","2.90044","3895.53"
"35.00000","2.91707","3911.88"
"35.20000","2.93320","3925.94"
"35.40000","2.95013","3941.83"
"35.60000","2.96736","3957.81"
"35.80000","2.98359","3971.44"
"36.00000","3.00012","3985.54"
"36.20000","3.01736","4001.29"
"36.40000","3.03359","4014.02"
"36.60000","3.04991","4025.56"
"36.80000","3.06695","4038.63"
"37.00000","3.08378","4051.41"
"37.20000","3.10011","4061.41"
"37.40000","3.11664","4071.34"
"37.60000","3.13357","4082.14"
"37.80000","3.15041","4091.32"
"38.00000","3.16643","4096.69"
"38.20000","3.18377","4102.58"
"38.40000","3.20040","4103.12"
"38.60000","3.21653","4100.21"
"38.80000","3.23356","4088.65"
"39.00000","3.25029","4052.27"
"39.16400","3.26390","3620.41"
"39.17200","3.26471","2858.79"
"39.17800","3.26541","2195.5"

File: Sequence_12.csv
General : Start date,"10/22/2024 9:43 AM"
General : End date,"10/22/2024 9:44 AM"
Specimen notes : Specimen note 1,"blue, 200, batch 8, seq 12"
Test : Rate 1,"5.00000",mm/min

Time,Extension,Load
(s),(mm),(N)
"0.00000","0.00000","0.39272"
"0.20000","0.01411","18.46550"
"0.40000","0.03306","56.22356"
"0.60000","0.04999","85.91679"
"0.80000","0.06683","113.809"
"1.00000","0.08366","142.48"
"1.20000","0.10009","171.569"
"1.40000","0.11682","191.151"
"1.60000","0.13395","219.661"
"1.80000","0.15028","248.555"
"2.00000","0.16661","277.163"
"2.20000","0.18375","305.209"
"2.40000","0.20028","334.677"
"2.60000","0.21661","360.935"
"2.80000","0.23364","389.2"
"3.00000","0.25037","418.011"
"3.20000","0.26660","445.22"
"3.40000","0.28343","473.85"
"3.60000","0.30047","501.12"
"3.80000","0.31690","528.575"
"4.00000","0.33322","555.788"
"4.20000","0.35036","584.85"
"4.40000","0.36729","612.049"
"4.60000","0.38332","639.702"
"4.80000","0.40015","667.085"
"5.00000","0.41668","693.174"
"5.20000","0.43351","720.837"
"5.40000","0.44984","747.218"
"5.60000","0.46688","774.611"
"5.80000","0.48361","800.717"
"6.00000","0.49994","827.087"
"6.20000","0.51697","855.133"
"6.40000","0.53350","880.898"
"6.60000","0.55013","907.029"
"6.80000","0.56666","932.711"
"7.00000","0.58380","960.981"
"7.20000","0.60023","986.393"
"7.40000","0.61676","1011.64"
"7.60000","0.63349","1038.76"
"7.80000","0.65052","1064.39"
"8.00000","0.66665","1089.9"
"8.20000","0.68318","1115.52"
"8.40000","0.70042","1141.49"
"8.60000","0.71644","1166.27"
"8.80000","0.73327","1191.69"
"9.00000","0.75021","1218.41"
"9.20000","0.76704","1244.11"
"9.40000","0.78337","1269.47"
"9.60000","0.80030","1294.54"
"9.80000","0.81703","1319.68"
"10.00000","0.83356","1344.06"
"10.20000","0.84999","1367.69"
"10.40000","0.86713","1395.06"
"10.60000","0.88366","1418.46"
"10.80000","0.89968","1442.52"
"11.00000","0.91702","1468.27"
"11.20000","0.93345","1491.79"
"11.40000","0.95008","1515.84"
"11.60000","0.96681","1541.37"
"11.80000","0.98375","1565.15"
"12.00000","0.99997","1587.87"
"12.20000","1.01640","1610.67"
"12.40000","1.03374","1635.55"
"12.60000","1.05057","1660.2"
"12.80000","1.06630","1682.63"
"13.00000","1.08343","1705.14"
"13.20000","1.10057","1727.58"
"13.40000","1.11659","1751.01"
"13.60000","1.13342","1772.55"
"13.80000","1.15036","1796.35"
"14.00000","1.16699","1819.08"
"14.20000","1.18332","1840.57"
"14.40000","1.20025","1864.22"
"14.60000","1.21708","1886.55"
"14.80000","1.23331","1908.76"
"15.00000","1.25004","1931.35"
"15.20000","1.26677","1954.2"
"15.40000","1.28351","1975.73"
"15.60000","1.29983","1997.4"
"15.80000","1.31717","2020.73"
"16.00000","1.33350","2040.31"
"16.20000","1.35023","2064.11"
"16.40000","1.36666","2082.94"
"16.60000","1.38370","2104.78"
"16.80000","1.40002","2125.52"
"17.00000","1.41655","2145.89"
"17.20000","1.43359","2169.17"
"17.40000","1.45042","2190.86"
"17.60000","1.46655","2210.21"
"17.80000","1.48368","2232.22"
"18.00000","1.50031","2254.56"
"18.20000","1.51664","2274.44"
"18.40000","1.53347","2296.14"
"18.60000","1.55031","2316.87"
"18.80000","1.56694","2338.63"
"19.00000","1.58337","2358.1"
"19.20000","1.60000","2379.35"
"19.40000","1.61713","2400.02"
"19.60000","1.63316","2420.32"
"19.80000","1.65040","2441.69"
"20.00000","1.66703","2462.76"
"20.20000","1.68366","2483.35"
"20.40000","1.69988","2502.29"
"20.60000","1.71722","2523.45"
"20.80000","1.73345","2542.86"
"21.00000","1.74988","2562.11"
"21.20000","1.76701","2582.55"
"21.40000","1.78364","2602.1"
"21.60000","1.79997","2620.38"
"21.80000","1.81640","2640.57"
"22.00000","1.83374","2661.23"
"22.20000","1.85027","2675.01"
"22.40000","1.86629","2693.89"
"22.60000","1.88373","2715.38"
"22.80000","1.90046","2734.18"
"23.00000","1.91649","2750.86"
"23.20000","1.93342","2769.9"
"23.40000","1.95036","2789.37"
"23.60000","1.96689","2807.68"
"23.80000","1.98342","2826.28"
"24.00000","2.00015","2844.72"
"24.20000","2.01718","2862.8"
"24.40000","2.03311","2874.61"
"24.60000","2.05024","2893.64"
"24.80000","2.06687","2907.96"
"25.00000","2.08361","2924.8"
"25.20000","2.09983","2941.59"
"25.40000","2.11707","2960.51"
"25.60000","2.13340","2976.4"
"25.80000","2.15023","2994.51"
"26.00000","2.16737","3011.99"
"26.20000","2.18349","3027.85"
"26.40000","2.20002","3045.35"
"26.60000","2.21675","3055.19"
"26.80000","2.23389","3073.03"
"27.00000","2.25022","3089.12"
"27.20000","2.26655","3103.57"
"27.40000","2.28358","3120.44"
"27.60000","2.30001","3137.35"
"27.80000","2.31654","3151.93"
"28.00000","2.33368","3168.38"
"28.20000","2.35041","3183.35"
"28.40000","2.36663","3197.9"
"28.60000","2.38337","3214.35"
"28.80000","2.40030","3228.46"
"29.00000","2.41713","3243.08"
"29.20000","2.43316","3255.57"
"29.40000","2.45049","3271.11"
"29.60000","2.46692","3283.47"
"29.80000","2.48325","3297.02"
"30.00000","2.50009","3309.38"
"30.20000","2.51692","3321.91"
"30.40000","2.53345","3334.45"
"30.60000","2.54998","3345.23"
"30.80000","2.56701","3360.2"
"31.00000","2.58364","3373.18"
"31.20000","2.59987","3384.31"
"31.40000","2.61701","3397.51"
"31.60000","2.63394","3407.83"
"31.80000","2.64997","3417.86"
"32.00000","2.66660","3419.57"
"32.20000","2.68383","3330.13"
"32.40000","2.70006","3350.41"
"32.60000","2.71659","3363.55"
"32.80000","2.73352","3376.16"
"33.00000","2.75036","3389.9"
"33.20000","2.76658","3402.18"
"33.40000","2.78352","3415.69"
"33.60000","2.80025","3428.7"
"33.80000","2.81698","3441.69"
"34.00000","2.83311","3453.62"
"34.20000","2.85024","3466.85"
"34.40000","2.86677","3479.02"
"34.60000","2.88330","3455.61"
"34.80000","2.90054","3472.35"
"35.00000","2.91707","3482.11"
"35.20000","2.93370","3494.11"
"35.40000","2.95003","3504.35"
"35.60000","2.96706","3517.91"
"35.80000","2.98349","3529.4"
"36.00000","2.99962","3540.62"
"36.20000","3.01685","3552.93"
"36.40000","3.03389","3563.58"
"36.60000","3.04981","3572.58"
"36.80000","3.06705","3583.38"
"37.00000","3.08388","3593.75"
"37.20000","3.09991","3602.06"
"37.40000","3.11654","3609.12"
"37.60000","3.13367","3617.33"
"37.80000","3.15041","3627.64"
"38.00000","3.16653","3637.37"
"38.20000","3.18357","3646.84"
"38.40000","3.20040","3656.54"
"38.60000","3.21653","3665.27"
"38.80000","3.23336","3672.17"
"39.00000","3.25039","3680.27"
"39.20000","3.26702","3688.74"
"39.40000","3.28315","3697.53"
"39.60000","3.30049","3706.65"
"39.80000","3.31672","3713.63"
"40.00000","3.33345","3721.52"
"40.20000","3.35018","3728.89"
"40.40000","3.36691","3736.49"
"40.60000","3.38334","3744.22"
"40.80000","3.39987","3751.08"
"41.00000","3.41711","3757.3"
"41.20000","3.43364","3763.83"
"41.40000","3.44956","3768.5"
"41.60000","3.46700","3773.81"
"41.80000","3.48373","3779.98"
"42.00000","3.49996","3782.84"
"42.20000","3.51689","3786.04"
"42.40000","3.53383","3789.64"
"42.60000","3.55046","3792.39"
"42.80000","3.56668","3793.28"
"43.00000","3.58331","3794.65"
"43.20000","3.60045","3795.21"
"43.40000","3.61668","3795.56"
"43.60000","3.63351","3793.51"
"43.80000","3.65024","3790.31"
"44.00000","3.66687","3784.5"
"44.20000","3.68310","3775.85"
"44.40000","3.70054","3764.51"
"44.60000","3.71687","3740.33"
"44.80000","3.73350","3679.61"
"44.99400","3.74993","3331.83"
"45.00200","3.75063","2691.87"
"45.00800","3.75134","2097.55"

File: Sequence_13.csv
General : Start date,"10/22/2024 9:46 AM"
General : End date,"10/22/2024 9:47 AM"
Specimen notes : Specimen note 1,"green, 200, batch 9, seq 13"
Test : Rate 1,"5.00000",mm/min

Time,Extension,Load
(s),(mm),(N)
"0.00000","-0.00020","0.35331"
"0.20000","0.00998","12.10931"
"0.40000","0.03225","54.62806"
"0.60000","0.04949","84.61513"
"0.80000","0.06642","113.287"
"1.00000","0.08326","141.482"
"1.20000","0.10009","169.039"
"1.40000","0.11672","195.359"
"1.60000","0.13325","222.869"
"1.80000","0.15028","251.685"
"2.00000","0.16681","280.072"
"2.20000","0.18304","306.219"
"2.40000","0.20028","336.08"
"2.60000","0.21691","365.855"
"2.80000","0.23314","391.461"
"3.00000","0.24987","419.248"
"3.20000","0.26690","448.254"
"3.40000","0.28313","474.557"
"3.60000","0.29996","502.64"
"3.80000","0.31679","529.779"
"4.00000","0.33343","556.967"
"4.20000","0.34985","584.944"
"4.40000","0.36669","611.005"
"4.60000","0.38382","638.594"
"4.80000","0.39975","664.723"
"5.00000","0.41648","691.59"
"5.20000","0.43321","717.491"
"5.40000","0.45025","744.615"
"5.60000","0.46617","769.47"
"5.80000","0.48341","798.303"
"6.00000","0.50024","823.375"
"6.20000","0.51637","849.352"
"6.40000","0.53330","876.206"
"6.60000","0.55043","902.598"
"6.80000","0.56666","927.727"
"7.00000","0.58319","953.443"
"7.20000","0.60013","978.572"
"7.40000","0.61686","1004.54"
"7.60000","0.63319","1029.23"
"7.80000","0.65002","1055.6"
"8.00000","0.66705","1081.83"
"8.20000","0.68328","1106.37"
"8.40000","0.69961","1131.61"
"8.60000","0.71674","1157.26"
"8.80000","0.73307","1181.13"
"9.00000","0.74960","1206.35"
"9.20000","0.76674","1232.58"
"9.40000","0.78357","1257.71"
"9.60000","0.80000","1283.33"
"9.80000","0.81673","1307.85"
"10.00000","0.83336","1331.98"
"10.20000","0.85030","1356.44"
"10.40000","0.86632","1378.77"
"10.60000","0.88356","1403.97"
"10.80000","0.90019","1429.99"
"11.00000","0.91631","1452.69"
"11.20000","0.93335","1477.58"
"11.40000","0.95008","1502.87"
"11.60000","0.96661","1527.52"
"11.80000","0.98314","1549.82"
"12.00000","1.00018","1573.69"
"12.20000","1.01671","1598.01"
"12.40000","1.03303","1620.2"
"12.60000","1.05007","1644.67"
"12.80000","1.06700","1668.8"
"13.00000","1.08303","1692"
"13.20000","1.09996","1714.36"
"13.40000","1.11689","1738.99"
"13.60000","1.13322","1761.11"
"13.80000","1.14975","1783.54"
"14.00000","1.16679","1807.31"
"14.20000","1.18362","1829.31"
"14.40000","1.19975","1851.56"
"14.60000","1.21688","1874.79"
"14.80000","1.23331","1897.09"
"15.00000","1.25014","1921.12"
"15.20000","1.26637","1938.13"
"15.40000","1.28341","1960.4"
"15.60000","1.30014","1982.64"
"15.80000","1.31616","2004.48"
"16.00000","1.33350","2028.37"
"16.20000","1.35013","2050.31"
"16.40000","1.36676","2072.36"
"16.60000","1.38319","2093.24"
"16.80000","1.40023","2115.81"
"17.00000","1.41676","2136.8"
"17.20000","1.43308","2157.88"
"17.40000","1.45002","2179.72"
"17.60000","1.46695","2200.24"
"17.80000","1.48308","2218.42"
"18.00000","1.50011","2241.99"
"18.20000","1.51684","2263.55"
"18.40000","1.53307","2284.68"
"18.60000","1.54990","2304.85"
"18.80000","1.56684","2327.16"
"19.00000","1.58357","2346.81"
"19.20000","1.59970","2366.73"
"19.40000","1.61663","2387.64"
"19.60000","1.63356","2406.62"
"19.80000","1.64959","2427.89"
"20.00000","1.66662","2449.1"
"20.20000","1.68346","2470.15"
"20.40000","1.70019","2490.52"
"20.60000","1.71631","2511.55"
"20.80000","1.73365","2531.16"
"21.00000","1.75008","2551.19"
"21.20000","1.76661","2559.87"
"21.40000","1.78334","2578.95"
"21.60000","1.80028","2598.85"
"21.80000","1.81650","2617.36"
"22.00000","1.83313","2637.47"
"22.20000","1.85027","2657.09"
"22.40000","1.86670","2675.59"
"22.60000","1.88293","2694.43"
"22.80000","1.90016","2714.73"
"23.00000","1.91679","2733.45"
"23.20000","1.93312","2751.56"
"23.40000","1.94985","2770.84"
"23.60000","1.96679","2790.08"
"23.80000","1.98352","2808.92"
"24.00000","1.99985","2825.91"
"24.20000","2.01678","2844.76"
"24.40000","2.03361","2863.28"
"24.60000","2.04984","2879.93"
"24.80000","2.06687","2898.49"
"25.00000","2.08340","2916.71"
"25.20000","2.09983","2932.47"
"25.40000","2.11626","2949.9"
"25.60000","2.13360","2968.13"
"25.80000","2.14993","2984.96"
"26.00000","2.16666","3002.79"
"26.20000","2.18349","3019.72"
"26.40000","2.20022","3036.26"
"26.60000","2.21645","3053.04"
"26.80000","2.23308","3068.56"
"27.00000","2.25012","3085.06"
"27.20000","2.26675","3102.47"
"27.40000","2.28318","3117.02"
"27.60000","2.30011","3132.82"
"27.80000","2.31654","3144.7"
"28.00000","2.33307","3158.16"
"28.20000","2.35010","3174.01"
"28.40000","2.36684","3188.79"
"28.60000","2.38337","3202.41"
"28.80000","2.39990","3215.78"
"29.00000","2.41643","3229.38"
"29.20000","2.43376","3243.6"
"29.40000","2.44959","3204.36"
"29.60000","2.46692","3216.02"
"29.80000","2.48356","3223.05"
"30.00000","2.49978","3233.61"
"30.20000","2.51651","3205.73"
"30.40000","2.53355","3185.94"
"30.60000","2.54988","3194.6"
"30.80000","2.56641","3207.04"
"31.00000","2.58334","3219.77"
"31.20000","2.60027","3232.55"
"31.40000","2.61650","3245.61"
"31.60000","2.63364","3184.79"
"31.80000","2.65047","3204.18"
"32.00000","2.66670","3220.76"
"32.20000","2.68313","3236.16"
"32.40000","2.70046","3252.48"
"32.60000","2.71659","3267.92"
"32.80000","2.73312","3242.78"
"33.00000","2.75005","3260.55"
"33.20000","2.76699","3277.12"
"33.40000","2.78311","3293.18"
"33.60000","2.79985","3308.05"
"33.80000","2.81658","3323.64"
"34.00000","2.83361","3338.02"
"34.20000","2.84954","3352.79"
"34.40000","2.86697","3368.64"
"34.60000","2.88340","3381.16"
"34.80000","2.89973","3393.73"
"35.00000","2.91677","3406.15"
"35.20000","2.93350","3418.02"
"35.40000","2.95013","3430.99"
"35.60000","2.96676","3443.68"
"35.80000","2.98359","3456.02"
"36.00000","3.00012","3467.79"
"36.20000","3.01625","3478.67"
"36.40000","3.03328","3490.67"
"36.60000","3.05032","3502.03"
"36.80000","3.06644","3513.35"
"37.00000","3.08328","3525.37"
"37.20000","3.10061","3536.74"
"37.40000","3.11674","3545.5"
"37.60000","3.13307","3555.71"
"37.80000","3.15000","3566.85"
"38.00000","3.16694","3577.91"
"38.20000","3.18326","3587.4"
"38.40000","3.19990","3596.88"
"38.60000","3.21673","3606.36"
"38.80000","3.23336","3616.7"
"39.00000","3.24969","3623.85"
"39.20000","3.26682","3634.78"
"39.40000","3.28345","3643.47"
"39.60000","3.29978","3651.33"
"39.80000","3.31702","3660.13"
"40.00000","3.33325","3667.16"
"40.20000","3.34988","3674.83"
"40.40000","3.36661","3681.03"
"40.60000","3.38344","3688.33"
"40.80000","3.39997","3693"
"41.00000","3.41630","3696.97"
"41.20000","3.43343","3702.82"
"41.40000","3.45037","3707.52"
"41.60000","3.46619","3710.74"
"41.80000","3.48333","3714.36"
"42.00000","3.50036","3718.73"
"42.20000","3.51659","3720.02"
"42.40000","3.53322","3721.92"
"42.60000","3.55015","3723.79"
"42.80000","3.56709","3723.92"
"43.00000","3.58311","3721.98"
"43.20000","3.59974","3720.7"
"43.40000","3.61688","3719.09"
"43.60000","3.63321","3715.25"
"43.80000","3.64974","3708.63"
"44.00000","3.66677","3700.16"
"44.20000","3.68340","3680.12"
"44.40000","3.69943","3600.55"
"44.57400","3.71495","3166.98"
"44.58200","3.71566","2530.62"
"44.58800","3.71636","1958.28"