Folder: 3D-Filament-Dyes/Data_Processing/Tensile-Data (part 10)

File: Sequence_29.csv
General : Start date,"10/29/2024 10:17 AM"
General : End date,"10/29/2024 10:18 AM"
Specimen notes : Specimen note 1,"Day 2, red, 215, batch 12, seq 29"
Test : Rate 1,"5.00000",mm/min

Time,Extension,Load
(s),(mm),(N)
"0.00000","0.00000","0.69299"
"0.20000","0.01048","11.35128"
"0.40000","0.03276","55.99495"
"0.60000","0.04929","83.69020"
"0.80000","0.06703","114.466"
"1.00000","0.08366","144.567"
"1.20000","0.09999","172.504"
"1.40000","0.11682","201.26"
"1.60000","0.13375","230.103"
"1.80000","0.14998","257.456"
"2.00000","0.16651","283.617"
"2.20000","0.18365","312.259"
"2.40000","0.20028","338.992"
"2.60000","0.21691","367.089"
"2.80000","0.23364","394.19"
"3.00000","0.25047","422.134"
"3.20000","0.26670","448.745"
"3.40000","0.28343","474.72"
"3.60000","0.30016","501.577"
"3.80000","0.31690","528.347"
"4.00000","0.33322","552.992"
"4.20000","0.35016","579.456"
"4.40000","0.36689","604.76"
"4.60000","0.38292","630.663"
"4.80000","0.40005","656.916"
"5.00000","0.41658","682.43"
"5.20000","0.43372","708.146"
"5.40000","0.45014","732.169"
"5.60000","0.46738","758.381"
"5.80000","0.48371","782.569"
"6.00000","0.50014","805.708"
"6.20000","0.51687","830.962"
"6.40000","0.53380","856.188"
"6.60000","0.55013","879.844"
"6.80000","0.56666","903.333"
"7.00000","0.58360","926.785"
"7.20000","0.60002","950.841"
"7.40000","0.61645","972.419"
"7.60000","0.63369","996.487"
"7.80000","0.65012","1018.55"
"8.00000","0.66655","1040.94"
"8.20000","0.68338","1063.57"
"8.40000","0.70042","1086.36"
"8.60000","0.71695","1107.46"
"8.80000","0.73327","1128.84"
"9.00000","0.75041","1149.79"
"9.20000","0.76714","1171.19"
"9.40000","0.78296","1192.4"
"9.60000","0.80030","1215.25"
"9.80000","0.81703","1236.79"
"10.00000","0.83316","1257.35"
"10.20000","0.84979","1279.17"
"10.40000","0.86693","1300.45"
"10.60000","0.88325","1319.86"
"10.80000","0.89999","1340.91"
"11.00000","0.91702","1361.92"
"11.20000","0.93375","1382.72"
"11.40000","0.94998","1399.86"
"11.60000","0.96671","1418.59"
"11.80000","0.98385","1438.07"
"12.00000","0.99997","1457.59"
"12.20000","1.01671","1474.66"
"12.40000","1.03364","1494.27"
"12.60000","1.05017","1512.7"
"12.80000","1.06630","1528.74"
"13.00000","1.08343","1548.82"
"13.20000","1.10026","1566.25"
"13.40000","1.11649","1584.52"
"13.60000","1.13332","1602.58"
"13.80000","1.15046","1621.33"
"14.00000","1.16689","1638.84"
"14.20000","1.18322","1655.42"
"14.40000","1.20045","1673.86"
"14.60000","1.21688","1691.42"
"14.80000","1.23341","1708.79"
"15.00000","1.25014","1725.78"
"15.20000","1.26708","1744.25"
"15.40000","1.28320","1760.44"
"15.60000","1.30004","1777.93"
"15.80000","1.31707","1795.87"
"16.00000","1.33380","1812.02"
"16.20000","1.34983","1827.28"
"16.40000","1.36696","1845.44"
"16.60000","1.38359","1861.89"
"16.80000","1.40002","1877.38"
"17.00000","1.41665","1894.34"
"17.20000","1.43389","1911.06"
"17.40000","1.45032","1927.68"
"17.60000","1.46665","1942.19"
"17.80000","1.48338","1959.27"
"18.00000","1.50041","1976.2"
"18.20000","1.51654","1991.4"
"18.40000","1.53347","2008.59"
"18.60000","1.55031","2025.26"
"18.80000","1.56674","2042.85"
"19.00000","1.58327","2058.42"
"19.20000","1.60030","2075.86"
"19.40000","1.61703","2092.4"
"19.60000","1.63336","2108.78"
"19.80000","1.65029","2125.44"
"20.00000","1.66713","2142.29"
"20.20000","1.68325","2157.13"
"20.40000","1.69978","2173.04"
"20.60000","1.71702","2190.07"
"20.80000","1.73355","2206.33"
"21.00000","1.74968","2222.32"
"21.20000","1.76681","2238.68"
"21.40000","1.78364","2254.3"
"21.60000","1.79987","2270.02"
"21.80000","1.81701","2286.75"
"22.00000","1.83374","2302.65"
"22.20000","1.85017","2317.38"
"22.40000","1.86660","2333.79"
"22.60000","1.88363","2349.94"
"22.80000","1.90056","2365.63"
"23.00000","1.91639","2381.41"
"23.20000","1.93363","2397.92"
"23.40000","1.95026","2413.17"
"23.60000","1.96648","2428.44"
"23.80000","1.98322","2445.29"
"24.00000","2.00035","2461.51"
"24.20000","2.01678","2477.55"
"24.40000","2.03341","2493.61"
"24.60000","2.05034","2509.48"
"24.80000","2.06697","2525.04"
"25.00000","2.08340","2540.97"
"25.20000","2.10014","2557.39"
"25.40000","2.11717","2571.69"
"25.60000","2.13340","2587.81"
"25.80000","2.15003","2602.83"
"26.00000","2.16706","2619.25"
"26.20000","2.18329","2634.71"
"26.40000","2.19982","2651.01"
"26.60000","2.21686","2666.54"
"26.80000","2.23359","2682.8"
"27.00000","2.25002","2698.61"
"27.20000","2.26685","2714.77"
"27.40000","2.28368","2730.86"
"27.60000","2.30051","2746.06"
"27.80000","2.31664","2761.42"
"28.00000","2.33388","2777.73"
"28.20000","2.35021","2792.57"
"28.40000","2.36674","2808.71"
"28.60000","2.38377","2825.46"
"28.80000","2.40020","2841.14"
"29.00000","2.41673","2856.66"
"29.20000","2.43316","2872.29"
"29.40000","2.45009","2886.58"
"29.60000","2.46682","2903.71"
"29.80000","2.48325","2918.59"
"30.00000","2.50019","2934.78"
"30.20000","2.51712","2950.27"
"30.40000","2.53325","2966.54"
"30.60000","2.55008","2981.03"
"30.80000","2.56721","2996.96"
"31.00000","2.58344","3011.94"
"31.20000","2.60007","3027.3"
"31.40000","2.61701","3042.89"
"31.60000","2.63364","3058.6"
"31.80000","2.64986","3072.53"
"32.00000","2.66660","3087.97"
"32.20000","2.68323","3103.74"
"32.40000","2.70006","3119.75"
"32.60000","2.71639","3134.94"
"32.80000","2.73372","3150.24"
"33.00000","2.75056","3164.73"
"33.20000","2.76658","3179.66"
"33.40000","2.78372","3195.52"
"33.60000","2.80025","3211.01"
"33.80000","2.81668","3225.23"
"34.00000","2.83341","3241.65"
"34.20000","2.85044","3257.87"
"34.40000","2.86677","3271.64"
"34.60000","2.88340","3286.73"
"34.80000","2.90014","3301.97"
"35.00000","2.91717","3316.59"
"35.20000","2.93309","3330.89"
"35.40000","2.95013","3346.32"
"35.60000","2.96706","3361.62"
"35.80000","2.98319","3375.46"
"36.00000","3.00002","3390.04"
"36.20000","3.01706","3405.55"
"36.40000","3.03369","3419.31"
"36.60000","3.04991","3433.93"
"36.80000","3.06675","3448.21"
"37.00000","3.08378","3463.62"
"37.20000","3.10001","3479.32"
"37.40000","3.11664","3493.37"
"37.60000","3.13367","3509.55"
"37.80000","3.15031","3523.33"
"38.00000","3.16643","3537.6"
"38.20000","3.18397","3552.46"
"38.40000","3.20020","3565.81"
"38.60000","3.21683","3580.36"
"38.80000","3.23356","3593"
"39.00000","3.25039","3608.52"
"39.20000","3.26652","3621.71"
"39.40000","3.28325","3635.97"
"39.60000","3.30059","3650.77"
"39.80000","3.31702","3664.56"
"40.00000","3.33314","3677.31"
"40.20000","3.35028","3691.9"
"40.40000","3.36691","3705.33"
"40.60000","3.38334","3718.55"
"40.80000","3.40017","3732.57"
"41.00000","3.41701","3746.62"
"41.20000","3.43354","3759.35"
"41.40000","3.44996","3772.59"
"41.60000","3.46680","3726.98"
"41.80000","3.48383","3747.13"
"42.00000","3.50006","3763.86"
"42.20000","3.51679","3779.29"
"42.40000","3.53352","3793.04"
"42.60000","3.55015","3809.48"
"42.80000","3.56648","3825.57"
"43.00000","3.58372","3840.45"
"43.20000","3.59995","3855.76"
"43.40000","3.61668","3869.52"
"43.60000","3.63361","3883.96"
"43.80000","3.65044","3898.67"
"44.00000","3.66667","3911.64"
"44.20000","3.68330","3926.34"
"44.40000","3.70034","3939.19"
"44.60000","3.71717","3952.81"
"44.80000","3.73330","3965.17"
"45.00000","3.75043","3978.93"
"45.20000","3.76696","3990.41"
"45.40000","3.78309","4001.4"
"45.60000","3.80002","4014.2"
"45.80000","3.81695","4026.12"
"46.00000","3.83338","4037.53"
"46.20000","3.85012","4049.23"
"46.40000","3.86675","4061.02"
"46.60000","3.88378","4072.98"
"46.80000","3.89981","4083.93"
"47.00000","3.91694","4094.58"
"47.20000","3.93377","4072"
"47.40000","3.95010","4080.13"
"47.60000","3.96663","4093.92"
"47.80000","3.98377","4106.81"
"48.00000","3.99999","4117.73"
"48.20000","4.01653","4127.69"
"48.40000","4.03346","4139.86"
"48.60000","4.05039","4152.69"
"48.80000","4.06642","4161.35"
"49.00000","4.08325","4171.81"
"49.20000","4.10059","4180.99"
"49.40000","4.11692","4189.14"
"49.60000","4.13314","4196.38"
"49.80000","4.15058","4205.1"
"50.00000","4.16691","4211.34"
"50.20000","4.18334","4218.19"
"50.40000","4.20027","4222.84"
"50.60000","4.21721","4228.55"
"50.80000","4.23313","4230.87"
"51.00000","4.25006","4233.67"
"51.20000","4.26680","4235.72"
"51.40000","4.28373","4236.22"
"51.60000","4.29976","4234.34"
"51.80000","4.31709","4232.81"
"52.00000","4.33372","4229.67"
"52.20000","4.34995","4224.98"
"52.40000","4.36678","4218.21"
"52.60000","4.38372","4208.78"
"52.80000","4.40025","4195.23"
"53.00000","4.41688","4176.26"
"53.20000","4.43371","4149.4"
"53.40000","4.45024","4103.3"
"53.56600","4.46385","3692.21"
"53.57400","4.46465","2897.98"
"53.57800","4.46506","2438.96"

File: Sequence_30.csv
General : Start date,"10/29/2024 10:20 AM"
General : End date,"10/29/2024 10:21 AM"
Specimen notes : Specimen note 1,"Day 2, purple, 215, batch 7, seq 30"
Test : Rate 1,"5.00000",mm/min

Time,Extension,Load
(s),(mm),(N)
"0.00000","0.00010","-0.24024"
"0.20000","0.01068","12.05405"
"0.40000","0.03276","54.79767"
"0.60000","0.05009","82.45923"
"0.80000","0.06652","109.058"
"1.00000","0.08376","136.636"
"1.20000","0.10049","166.414"
"1.40000","0.11682","191.843"
"1.60000","0.13335","219.927"
"1.80000","0.15048","249.819"
"2.00000","0.16691","276.346"
"2.20000","0.18324","303.683"
"2.40000","0.20028","331.779"
"2.60000","0.21701","359.552"
"2.80000","0.23354","387.304"
"3.00000","0.25027","415.176"
"3.20000","0.26730","443.278"
"3.40000","0.28353","470.383"
"3.60000","0.30016","497.041"
"3.80000","0.31679","523.933"
"4.00000","0.33373","550.368"
"4.20000","0.34985","576.789"
"4.40000","0.36699","604.464"
"4.60000","0.38382","629.134"
"4.80000","0.39965","654.866"
"5.00000","0.41668","680.777"
"5.20000","0.43361","707.123"
"5.40000","0.45025","732.569"
"5.60000","0.46688","758.248"
"5.80000","0.48401","784.383"
"6.00000","0.50054","809.749"
"6.20000","0.51677","833.568"
"6.40000","0.53350","858.017"
"6.60000","0.55053","883.273"
"6.80000","0.56686","907.156"
"7.00000","0.58329","931.084"
"7.20000","0.60033","955.321"
"7.40000","0.61696","980.214"
"7.60000","0.63319","1002.69"
"7.80000","0.65032","1027.49"
"8.00000","0.66675","1050.48"
"8.20000","0.68338","1073.77"
"8.40000","0.70011","1096.68"
"8.60000","0.71695","1119.83"
"8.80000","0.73378","1143.95"
"9.00000","0.75001","1165.36"
"9.20000","0.76714","1187.54"
"9.40000","0.78367","1209.7"
"9.60000","0.80000","1231.3"
"9.80000","0.81703","1249.9"
"10.00000","0.83366","1271.31"
"10.20000","0.84999","1291.61"
"10.40000","0.86642","1311.13"
"10.60000","0.88346","1331.59"
"10.80000","0.90009","1352.68"
"11.00000","0.91672","1371.37"
"11.20000","0.93355","1392.3"
"11.40000","0.95048","1412.68"
"11.60000","0.96671","1432.01"
"11.80000","0.98314","1452.07"
"12.00000","1.00058","1473.04"
"12.20000","1.01691","1491.35"
"12.40000","1.03344","1510.18"
"12.60000","1.05037","1530.45"
"12.80000","1.06700","1550.48"
"13.00000","1.08313","1569.18"
"13.20000","1.10016","1590.46"
"13.40000","1.11679","1610.24"
"13.60000","1.13363","1629.84"
"13.80000","1.14975","1647.63"
"14.00000","1.16699","1668.35"
"14.20000","1.18362","1687.23"
"14.40000","1.19995","1705.21"
"14.60000","1.21708","1725.18"
"14.80000","1.23371","1743.37"
"15.00000","1.25014","1763.12"
"15.20000","1.26667","1781.02"
"15.40000","1.28381","1800.46"
"15.60000","1.30024","1819.69"
"15.80000","1.31657","1838.67"
"16.00000","1.33350","1858.72"
"16.20000","1.35053","1877.45"
"16.40000","1.36656","1895.55"
"16.60000","1.38359","1914.46"
"16.80000","1.40043","1932.37"
"17.00000","1.41676","1951.06"
"17.20000","1.43329","1969.57"
"17.40000","1.45042","1988.52"
"17.60000","1.46705","2007.4"
"17.80000","1.48328","2025.4"
"18.00000","1.50011","2043.72"
"18.20000","1.51725","2061.2"
"18.40000","1.53337","2078.28"
"18.60000","1.54990","2095.41"
"18.80000","1.56704","2113.29"
"19.00000","1.58367","2131.34"
"19.20000","1.59980","2147.57"
"19.40000","1.61713","2166.27"
"19.60000","1.63356","2183.42"
"19.80000","1.65019","2201.14"
"20.00000","1.66703","2217.87"
"20.20000","1.68376","2234.96"
"20.40000","1.69999","2252.63"
"20.60000","1.71652","2268.97"
"20.80000","1.73375","2287.3"
"21.00000","1.75038","2302.43"
"21.20000","1.76651","2318.5"
"21.40000","1.78344","2334.88"
"21.60000","1.80028","2351.86"
"21.80000","1.81670","2368.52"
"22.00000","1.83364","2385.38"
"22.20000","1.85047","2402.18"
"22.40000","1.86700","2419.06"
"22.60000","1.88343","2435.61"
"22.80000","1.90026","2452.53"
"23.00000","1.91709","2468.97"
"23.20000","1.93332","2484.39"
"23.40000","1.95016","2501.34"
"23.60000","1.96689","2518.13"
"23.80000","1.98342","2535.51"
"24.00000","1.99985","2549.44"
"24.20000","2.01718","2566.75"
"24.40000","2.03341","2583.78"
"24.60000","2.05014","2599.02"
"24.80000","2.06687","2616.04"
"25.00000","2.08381","2631.41"
"25.20000","2.10014","2648.36"
"25.40000","2.11677","2665.1"
"25.60000","2.13370","2682.26"
"25.80000","2.15033","2698.39"
"26.00000","2.16656","2713.55"
"26.20000","2.18369","2730.65"
"26.40000","2.20022","2746.08"
"26.60000","2.21655","2761.56"
"26.80000","2.23339","2777.74"
"27.00000","2.25022","2794.26"
"27.20000","2.26705","2810.56"
"27.40000","2.28348","2826.69"
"27.60000","2.30021","2843.76"
"27.80000","2.31735","2860.21"
"28.00000","2.33327","2874.78"
"28.20000","2.35051","2890.1"
"28.40000","2.36704","2906.25"
"28.60000","2.38357","2922.72"
"28.80000","2.40010","2937.62"
"29.00000","2.41723","2954"
"29.20000","2.43336","2968.19"
"29.40000","2.44979","2983.07"
"29.60000","2.46682","3000"
"29.80000","2.48366","3015.6"
"30.00000","2.49988","3030.97"
"30.20000","2.51672","3047.34"
"30.40000","2.53385","3062.96"
"30.60000","2.55018","3078.24"
"30.80000","2.56661","3094.03"
"31.00000","2.58384","3111.05"
"31.20000","2.60038","3125.5"
"31.40000","2.61680","3140.7"
"31.60000","2.63374","3155.91"
"31.80000","2.65047","3170.53"
"32.00000","2.66660","3185.51"
"32.20000","2.68343","3200.39"
"32.40000","2.69986","3214.63"
"32.60000","2.71679","3231.03"
"32.80000","2.73312","3245.4"
"33.00000","2.75046","3261.31"
"33.20000","2.76719","3275.1"
"33.40000","2.78332","3290.58"
"33.60000","2.80025","3305.53"
"33.80000","2.81708","3320.82"
"34.00000","2.83341","3335.49"
"34.20000","2.85024","3350.71"
"34.40000","2.86718","3365.4"
"34.60000","2.88350","3380.1"
"34.80000","2.90003","3393.24"
"35.00000","2.91677","3409.81"
"35.20000","2.93380","3424.26"
"35.40000","2.95013","3438.68"
"35.60000","2.96676","3451.55"
"35.80000","2.98359","3468.04"
"36.00000","3.00022","3482.32"
"36.20000","3.01665","3496.12"
"36.40000","3.03369","3511.4"
"36.60000","3.05052","3525.89"
"36.80000","3.06665","3539.89"
"37.00000","3.08338","3554.38"
"37.20000","3.10041","3568.06"
"37.40000","3.11704","3581.95"
"37.60000","3.13317","3594.26"
"37.80000","3.15031","3609.36"
"38.00000","3.16704","3622.92"
"38.20000","3.18326","3635.91"
"38.40000","3.20050","3650.03"
"38.60000","3.21693","3663.05"
"38.80000","3.23376","3676.87"
"39.00000","3.24999","3688.27"
"39.20000","3.26692","3703.04"
"39.40000","3.28365","3715.27"
"39.60000","3.29978","3726.62"
"39.80000","3.31712","3739.35"
"40.00000","3.33385","3752.06"
"40.20000","3.34998","3762.11"
"40.40000","3.36681","3772.4"
"40.60000","3.38374","3783.99"
"40.80000","3.40017","3793.41"
"41.00000","3.41680","3804.18"
"41.20000","3.43374","3812.89"
"41.40000","3.45057","3822.57"
"41.60000","3.46660","3828.06"
"41.80000","3.48353","3834.9"
"42.00000","3.50046","3841.42"
"42.20000","3.51679","3845.23"
"42.40000","3.53332","3847.46"
"42.60000","3.55025","3848.8"
"42.80000","3.56678","3849.01"
"43.00000","3.58311","3843.9"
"43.20000","3.60045","3836.04"
"43.40000","3.61678","3821.06"
"43.60000","3.63331","3791.44"
"43.80000","3.65014","3694.64"
"43.82200","3.65216","3110.41"
"43.83000","3.65296","2299.78"
"43.83200","3.65327","2091.2"

File: Sequence_31.csv
General : Start date,"10/29/2024 10:22 AM"
General : End date,"10/29/2024 10:23 AM"
Specimen notes : Specimen note 1,"Day 2, black, 230, batch 2, seq 31"
Test : Rate 1,"5.00000",mm/min

Time,Extension,Load
(s),(mm),(N)
"0.00000","0.00000","0.71787"
"0.20000","0.00968","11.22807"
"0.40000","0.03205","54.92603"
"0.60000","0.04969","83.62576"
"0.80000","0.06713","111.446"
"1.00000","0.08366","138.668"
"1.20000","0.10009","164.766"
"1.40000","0.11722","191.968"
"1.60000","0.13365","219.487"
"1.80000","0.14988","245.989"
"2.00000","0.16691","275.166"
"2.20000","0.18375","301.768"
"2.40000","0.19997","329.176"
"2.60000","0.21661","355.575"
"2.80000","0.23374","384.438"
"3.00000","0.25027","410.803"
"3.20000","0.26670","437.5"
"3.40000","0.28383","464.485"
"3.60000","0.30067","490.974"
"3.80000","0.31659","516.687"
"4.00000","0.33343","542.447"
"4.20000","0.35026","569.902"
"4.40000","0.36679","595.593"
"4.60000","0.38322","620.205"
"4.80000","0.40025","646.578"
"5.00000","0.41688","670.947"
"5.20000","0.43291","695.29"
"5.40000","0.45035","721.201"
"5.60000","0.46647","745.544"
"5.80000","0.48361","770.754"
"6.00000","0.50034","794.262"
"6.20000","0.51727","818.828"
"6.40000","0.53360","841.608"
"6.60000","0.55013","864.246"
"6.80000","0.56696","885.867"
"7.00000","0.58370","908.456"
"7.20000","0.60002","931.634"
"7.40000","0.61666","954.028"
"7.60000","0.63379","977.352"
"7.80000","0.64992","998.755"
"8.00000","0.66655","1019.82"
"8.20000","0.68368","1042.16"
"8.40000","0.70001","1062.25"
"8.60000","0.71664","1082.83"
"8.80000","0.73348","1103.43"
"9.00000","0.75061","1125.58"
"9.20000","0.76674","1144.11"
"9.40000","0.78337","1164.09"
"9.60000","0.80030","1183.76"
"9.80000","0.81703","1204.92"
"10.00000","0.83316","1224.15"
"10.20000","0.85040","1244.42"
"10.40000","0.86672","1262.65"
"10.60000","0.88315","1281.04"
"10.80000","0.90019","1300.31"
"11.00000","0.91672","1319.45"
"11.20000","0.93335","1336.71"
"11.40000","0.95008","1354.92"
"11.60000","0.96701","1373.42"
"11.80000","0.98375","1389.6"
"12.00000","0.99977","1405.91"
"12.20000","1.01711","1421.6"
"12.40000","1.03384","1438.63"
"12.60000","1.04997","1454.87"
"12.80000","1.06660","1470.97"
"13.00000","1.08373","1489.22"
"13.20000","1.10036","1505.72"
"13.40000","1.11659","1519.91"
"13.60000","1.13332","1538.4"
"13.80000","1.15056","1555.14"
"14.00000","1.16638","1570.39"
"14.20000","1.18332","1587.08"
"14.40000","1.20055","1603.92"
"14.60000","1.21688","1620.91"
"14.80000","1.23331","1637.15"
"15.00000","1.25055","1654.1"
"15.20000","1.26677","1670.22"
"15.40000","1.28341","1686.96"
"15.60000","1.30024","1703.04"
"15.80000","1.31697","1721.23"
"16.00000","1.33310","1735.7"
"16.20000","1.34973","1753.24"
"16.40000","1.36716","1771.7"
"16.60000","1.38359","1788.21"
"16.80000","1.39982","1804.1"
"17.00000","1.41736","1822.18"
"17.20000","1.43369","1838.3"
"17.40000","1.44992","1854.64"
"17.60000","1.46685","1870.76"
"17.80000","1.48378","1887.86"
"18.00000","1.50021","1904.92"
"18.20000","1.51674","1921.14"
"18.40000","1.53358","1937.43"
"18.60000","1.55041","1954.62"
"18.80000","1.56643","1970.45"
"19.00000","1.58357","1987.24"
"19.20000","1.60040","2004.32"
"19.40000","1.61663","2020.08"
"19.60000","1.63346","2035.9"
"19.80000","1.65029","2051.88"
"20.00000","1.66682","2067.07"
"20.20000","1.68335","2083.46"
"20.40000","1.70059","2100.63"
"20.60000","1.71702","2115.7"
"20.80000","1.73315","2130.86"
"21.00000","1.75008","2147.14"
"21.20000","1.76721","2162.93"
"21.40000","1.78344","2178.62"
"21.60000","1.79977","2194.64"
"21.80000","1.81701","2212.01"
"22.00000","1.83354","2227.83"
"22.20000","1.84987","2242.64"
"22.40000","1.86700","2260.37"
"22.60000","1.88383","2276.57"
"22.80000","1.90016","2291.58"
"23.00000","1.91689","2307.3"
"23.20000","1.93352","2323.62"
"23.40000","1.95056","2338.78"
"23.60000","1.96638","2353.38"
"23.80000","1.98372","2370.66"
"24.00000","2.00025","2386.35"
"24.20000","2.01638","2400.63"
"24.40000","2.03341","2417.7"
"24.60000","2.05034","2433.67"
"24.80000","2.06687","2449.92"
"25.00000","2.08371","2466.21"
"25.20000","2.10044","2482.31"
"25.40000","2.11697","2497.17"
"25.60000","2.13340","2513.41"
"25.80000","2.15023","2530.27"
"26.00000","2.16716","2546.21"
"26.20000","2.18329","2560"
"26.40000","2.19992","2576.17"
"26.60000","2.21706","2591.92"
"26.80000","2.23328","2606.97"
"27.00000","2.24981","2623.18"
"27.20000","2.26695","2640.32"
"27.40000","2.28368","2654.91"
"27.60000","2.30001","2669.68"
"27.80000","2.31694","2686.97"
"28.00000","2.33388","2702.92"
"28.20000","2.35041","2718.22"
"28.40000","2.36663","2732.74"
"28.60000","2.38377","2748.93"
"28.80000","2.40020","2763.9"
"29.00000","2.41663","2780.19"
"29.20000","2.43376","2796.48"
"29.40000","2.45009","2811.23"
"29.60000","2.46662","2826.92"
"29.80000","2.48325","2841.78"
"30.00000","2.50039","2857.84"
"30.20000","2.51682","2872.97"
"30.40000","2.53325","2888.1"
"30.60000","2.55028","2904.89"
"30.80000","2.56711","2920.09"
"31.00000","2.58314","2934.7"
"31.20000","2.60027","2950.95"
"31.40000","2.61731","2965.1"
"31.60000","2.63333","2980.62"
"31.80000","2.65017","2995.93"
"32.00000","2.66710","3012.33"
"32.20000","2.68363","3026.71"
"32.40000","2.69976","3039.85"
"32.60000","2.71659","3056.95"
"32.80000","2.73342","3071.55"
"33.00000","2.74985","3085.58"
"33.20000","2.76668","3101.14"
"33.40000","2.78372","3116.33"
"33.60000","2.80035","3131.17"
"33.80000","2.81658","3145.24"
"34.00000","2.83381","3160.98"
"34.20000","2.85014","3176.09"
"34.40000","2.86677","3190.64"
"34.60000","2.88361","3205.83"
"34.80000","2.90044","3221.3"
"35.00000","2.91677","3235.74"
"35.20000","2.93330","3250.56"
"35.40000","2.95023","3266.13"
"35.60000","2.96696","3280.83"
"35.80000","2.98309","3295.19"
"36.00000","3.00053","3310.48"
"36.20000","3.01706","3325.19"
"36.40000","3.03328","3338.35"
"36.60000","3.05012","3352.59"
"36.80000","3.06695","3368.47"
"37.00000","3.08358","3382.73"
"37.20000","3.10011","3396.67"
"37.40000","3.11664","3410.36"
"37.60000","3.13388","3426.35"
"37.80000","3.14990","3439.35"
"38.00000","3.16684","3454.7"
"38.20000","3.18357","3469.24"
"38.40000","3.20020","3483.63"
"38.60000","3.21653","3497.81"
"38.80000","3.23396","3513.01"
"39.00000","3.25009","3526.57"
"39.20000","3.26672","3540.05"
"39.40000","3.28365","3554.47"
"39.60000","3.30029","3568.23"
"39.80000","3.31661","3581.09"
"40.00000","3.33335","3595.19"
"40.20000","3.35048","3609.31"
"40.40000","3.36681","3623.27"
"40.60000","3.38314","3636.13"
"40.80000","3.40058","3650.31"
"41.00000","3.41701","3663.57"
"41.20000","3.43333","3676.59"
"41.40000","3.45017","3690.69"
"41.60000","3.46700","3705.78"
"41.80000","3.48373","3718.07"
"42.00000","3.50006","3730.9"
"42.20000","3.51679","3744.1"
"42.40000","3.53383","3756.52"
"42.60000","3.54975","3768.2"
"42.80000","3.56699","3781.26"
"43.00000","3.58362","3793.42"
"43.20000","3.60005","3806.26"
"43.40000","3.61668","3817.07"
"43.60000","3.63381","3830.19"
"43.80000","3.64984","3841.29"
"44.00000","3.66677","3854.08"
"44.20000","3.68370","3864.72"
"44.40000","3.70044","3876.74"
"44.60000","3.71677","3887.36"
"44.80000","3.73330","3899.19"
"45.00000","3.75043","3910.2"
"45.20000","3.76686","3919.87"
"45.40000","3.78329","3929.09"
"45.60000","3.80073","3939.43"
"45.80000","3.81685","3947.91"
"46.00000","3.83318","3955.32"
"46.20000","3.85032","3963.99"
"46.40000","3.86685","3970.07"
"46.60000","3.88318","3975.58"
"46.80000","3.90021","3981.11"
"47.00000","3.91684","3985.4"
"47.20000","3.93387","3987.97"
"47.40000","3.94990","3986.26"
"47.60000","3.96714","3985.01"
"47.80000","3.98377","3978.93"
"48.00000","4.00020","3968.82"
"48.20000","4.01683","3952.48"
"48.40000","4.03356","3924.24"
"48.60000","4.05009","3868.53"
"48.74000","4.06158","3412.84"
"48.74800","4.06239","2643.23"
"48.75200","4.06279","2210.31"