Folder: 3D-Filament-Dyes/Data_Processing/Tensile-Data (part 14)

File: Sequence_41.csv
General : Start date,"10/29/2024 10:47 AM"
General : End date,"10/29/2024 10:47 AM"
Specimen notes : Specimen note 1,"Day 2, black, 215, batch 11, seq 41"
Test : Rate 1,"5.00000",mm/min

Time,Extension,Load
(s),(mm),(N)
"0.00000","0.00000","0.59158"
"0.20000","0.01078","13.18831"
"0.40000","0.03256","54.67516"
"0.60000","0.04949","83.31925"
"0.80000","0.06673","112.033"
"1.00000","0.08376","140.716"
"1.20000","0.10049","167.848"
"1.40000","0.11672","194.577"
"1.60000","0.13385","223.355"
"1.80000","0.15038","250.764"
"2.00000","0.16671","276.399"
"2.20000","0.18375","304.02"
"2.40000","0.20068","331.03"
"2.60000","0.21661","355.647"
"2.80000","0.23344","382.185"
"3.00000","0.25017","408.532"
"3.20000","0.26670","433.887"
"3.40000","0.28323","459.065"
"3.60000","0.30026","485.907"
"3.80000","0.31700","511.441"
"4.00000","0.33332","535.657"
"4.20000","0.35046","561.446"
"4.40000","0.36729","586.448"
"4.60000","0.38362","611.193"
"4.80000","0.39995","634.755"
"5.00000","0.41718","659.648"
"5.20000","0.43361","683.347"
"5.40000","0.44984","704.784"
"5.60000","0.46698","729.951"
"5.80000","0.48371","753.082"
"6.00000","0.49994","774.182"
"6.20000","0.51667","797.138"
"6.40000","0.53370","819.837"
"6.60000","0.55023","841.396"
"6.80000","0.56666","862.448"
"7.00000","0.58380","883.516"
"7.20000","0.60053","904.538"
"7.40000","0.61666","924.514"
"7.60000","0.63359","944.654"
"7.80000","0.65012","965.259"
"8.00000","0.66685","985.693"
"8.20000","0.68328","1004.85"
"8.40000","0.70021","1026.23"
"8.60000","0.71674","1045.35"
"8.80000","0.73287","1064.26"
"9.00000","0.75031","1083.72"
"9.20000","0.76664","1102.78"
"9.40000","0.78357","1122.61"
"9.60000","0.80030","1139.67"
"9.80000","0.81713","1159.56"
"10.00000","0.83366","1177.88"
"10.20000","0.85009","1195.67"
"10.40000","0.86703","1214.03"
"10.60000","0.88376","1232.98"
"10.80000","0.90019","1251.17"
"11.00000","0.91672","1268.31"
"11.20000","0.93375","1284.14"
"11.40000","0.94988","1300.48"
"11.60000","0.96651","1315.16"
"11.80000","0.98354","1333.01"
"12.00000","1.00028","1348.07"
"12.20000","1.01660","1363.42"
"12.40000","1.03344","1379.32"
"12.60000","1.05067","1395.25"
"12.80000","1.06680","1410.1"
"13.00000","1.08353","1425.09"
"13.20000","1.10036","1439.94"
"13.40000","1.11699","1455.37"
"13.60000","1.13312","1470.66"
"13.80000","1.15036","1486.8"
"14.00000","1.16689","1502.4"
"14.20000","1.18312","1516.36"
"14.40000","1.19995","1532.8"
"14.60000","1.21678","1548.51"
"14.80000","1.23341","1564.04"
"15.00000","1.25004","1580.2"
"15.20000","1.26718","1595.83"
"15.40000","1.28391","1611.28"
"15.60000","1.29983","1626.12"
"15.80000","1.31697","1642.25"
"16.00000","1.33380","1657.32"
"16.20000","1.35013","1673.51"
"16.40000","1.36666","1688.25"
"16.60000","1.38380","1703.54"
"16.80000","1.40023","1719.16"
"17.00000","1.41645","1733.33"
"17.20000","1.43339","1749.86"
"17.40000","1.45062","1764.89"
"17.60000","1.46645","1780.24"
"17.80000","1.48348","1795.55"
"18.00000","1.50041","1812.28"
"18.20000","1.51694","1828.89"
"18.40000","1.53327","1843.08"
"18.60000","1.55061","1859.14"
"18.80000","1.56694","1873.46"
"19.00000","1.58337","1888.89"
"19.20000","1.60020","1904.2"
"19.40000","1.61713","1919.6"
"19.60000","1.63326","1933.38"
"19.80000","1.64979","1949.13"
"20.00000","1.66713","1965.23"
"20.20000","1.68376","1979.51"
"20.40000","1.69978","1994.49"
"20.60000","1.71732","2011.07"
"20.80000","1.73355","2025.36"
"21.00000","1.74998","2041.23"
"21.20000","1.76701","2056.62"
"21.40000","1.78395","2072.37"
"21.60000","1.80007","2087.51"
"21.80000","1.81681","2102.41"
"22.00000","1.83354","2118.4"
"22.20000","1.85047","2132.77"
"22.40000","1.86650","2147.61"
"22.60000","1.88363","2164.1"
"22.80000","1.90026","2179.46"
"23.00000","1.91649","2193.97"
"23.20000","1.93342","2210.12"
"23.40000","1.95046","2224.94"
"23.60000","1.96689","2239.96"
"23.80000","1.98352","2254.76"
"24.00000","2.00065","2271.58"
"24.20000","2.01708","2285.38"
"24.40000","2.03331","2300.82"
"24.60000","2.05014","2315.9"
"24.80000","2.06708","2331.61"
"25.00000","2.08340","2346.2"
"25.20000","2.09973","2360.5"
"25.40000","2.11677","2376.18"
"25.60000","2.13350","2391.78"
"25.80000","2.15013","2406.73"
"26.00000","2.16706","2423.01"
"26.20000","2.18390","2436.7"
"26.40000","2.20012","2452.82"
"26.60000","2.21675","2467.73"
"26.80000","2.23339","2483.49"
"27.00000","2.25042","2498.94"
"27.20000","2.26645","2513.95"
"27.40000","2.28358","2530.29"
"27.60000","2.30041","2544.83"
"27.80000","2.31654","2558.56"
"28.00000","2.33357","2574.53"
"28.20000","2.35031","2588.98"
"28.40000","2.36684","2604"
"28.60000","2.38357","2618.8"
"28.80000","2.40050","2635.2"
"29.00000","2.41703","2649.06"
"29.20000","2.43336","2665.3"
"29.40000","2.45019","2681.11"
"29.60000","2.46713","2696.83"
"29.80000","2.48335","2711.34"
"30.00000","2.49998","2725.89"
"30.20000","2.51702","2741.16"
"30.40000","2.53345","2755.85"
"30.60000","2.54988","2769.64"
"30.80000","2.56691","2786.1"
"31.00000","2.58364","2801.94"
"31.20000","2.60007","2816.02"
"31.40000","2.61680","2831.82"
"31.60000","2.63394","2847.11"
"31.80000","2.65047","2861.34"
"32.00000","2.66680","2876.25"
"32.20000","2.68383","2890.53"
"32.40000","2.70026","2904.89"
"32.60000","2.71669","2920.72"
"32.80000","2.73372","2935.53"
"33.00000","2.75005","2950.22"
"33.20000","2.76668","2964.58"
"33.40000","2.78321","2979.07"
"33.60000","2.80035","2995.46"
"33.80000","2.81688","3009.22"
"34.00000","2.83331","3024.51"
"34.20000","2.85024","3039.49"
"34.40000","2.86697","3053.17"
"34.60000","2.88320","3067.42"
"34.80000","2.90034","3083.3"
"35.00000","2.91737","3096.97"
"35.20000","2.93330","3111.71"
"35.40000","2.95013","3126.77"
"35.60000","2.96706","3140.82"
"35.80000","2.98379","3155.15"
"36.00000","2.99982","3168.04"
"36.20000","3.01665","3183.35"
"36.40000","3.03338","3197.47"
"36.60000","3.04991","3212.68"
"36.80000","3.06675","3226.73"
"37.00000","3.08368","3240.81"
"37.20000","3.10041","3255.03"
"37.40000","3.11654","3269.58"
"37.60000","3.13408","3283.8"
"37.80000","3.15010","3297.76"
"38.00000","3.16684","3311.87"
"38.20000","3.18367","3326.55"
"38.40000","3.20040","3340.18"
"38.60000","3.21663","3353.27"
"38.80000","3.23326","3367.81"
"39.00000","3.25029","3380.35"
"39.20000","3.26692","3394.33"
"39.40000","3.28325","3407.7"
"39.60000","3.30029","3421.65"
"39.80000","3.31702","3435.47"
"40.00000","3.33335","3448.97"
"40.20000","3.35018","3463.45"
"40.40000","3.36711","3477.01"
"40.60000","3.38354","3490.2"
"40.80000","3.40007","3502.55"
"41.00000","3.41670","3516.67"
"41.20000","3.43394","3530.37"
"41.40000","3.44986","3543.49"
"41.60000","3.46690","3556.23"
"41.80000","3.48363","3569.8"
"42.00000","3.50026","3582.15"
"42.20000","3.51669","3594.81"
"42.40000","3.53403","3609.28"
"42.60000","3.55025","3621.32"
"42.80000","3.56668","3633.7"
"43.00000","3.58372","3645.97"
"43.20000","3.60035","3658.27"
"43.40000","3.61668","3670.05"
"43.60000","3.63331","3681.57"
"43.80000","3.65064","3695.23"
"44.00000","3.66707","3707.05"
"44.20000","3.68310","3718.3"
"44.40000","3.70044","3730.34"
"44.60000","3.71717","3742.19"
"44.80000","3.73330","3754.33"
"45.00000","3.75003","3764.81"
"45.20000","3.76696","3776.79"
"45.40000","3.78359","3788.34"
"45.60000","3.80002","3798.24"
"45.80000","3.81675","3808.83"
"46.00000","3.83379","3819.73"
"46.20000","3.84991","3830.22"
"46.40000","3.86695","3840.23"
"46.60000","3.88358","3849.95"
"46.80000","3.90011","3860.07"
"47.00000","3.91664","3869.48"
"47.20000","3.93377","3879.14"
"47.40000","3.94990","3886.54"
"47.60000","3.96673","3896.21"
"47.80000","3.98387","3904.25"
"48.00000","4.00040","3912.65"
"48.20000","4.01673","3920.09"
"48.40000","4.03346","3926.87"
"48.60000","4.05049","3933.27"
"48.80000","4.06692","3938.25"
"49.00000","4.08335","3943.79"
"49.20000","4.10069","3948.62"
"49.40000","4.11671","3951.76"
"49.60000","4.13314","3953.37"
"49.80000","4.15038","3955.44"
"50.00000","4.16711","3954.36"
"50.20000","4.18344","3949.77"
"50.40000","4.20007","3942.7"
"50.60000","4.21680","3931.91"
"50.80000","4.23384","3910.31"
"51.00000","4.24996","3860.47"
"51.12200","4.26055","3465.29"
"51.13000","4.26135","2709.77"
"51.13400","4.26176","2275.12"

File: Sequence_42.csv
General : Start date,"10/29/2024 10:49 AM"
General : End date,"10/29/2024 10:49 AM"
Specimen notes : Specimen note 1,"Day 2, black, 230, batch 5, seq 42"
Test : Rate 1,"5.00000",mm/min

Time,Extension,Load
(s),(mm),(N)
"0.00000","0.00000","1.16078"
"0.20000","0.00998","11.48998"
"0.40000","0.03225","53.72196"
"0.60000","0.04959","83.01560"
"0.80000","0.06632","109.82"
"1.00000","0.08336","138.205"
"1.20000","0.10039","164.9"
"1.40000","0.11692","191.336"
"1.60000","0.13315","217.26"
"1.80000","0.15038","244.384"
"2.00000","0.16702","269.507"
"2.20000","0.18324","296.204"
"2.40000","0.20018","322.448"
"2.60000","0.21711","349.281"
"2.80000","0.23314","373.995"
"3.00000","0.24987","399.228"
"3.20000","0.26680","423.641"
"3.40000","0.28333","447.433"
"3.60000","0.29966","472.007"
"3.80000","0.31679","496.92"
"4.00000","0.33332","520.07"
"4.20000","0.34996","544.925"
"4.40000","0.36679","569.248"
"4.60000","0.38382","591.913"
"4.80000","0.40025","614.513"
"5.00000","0.41648","635.164"
"5.20000","0.43372","658.512"
"5.40000","0.45014","679.612"
"5.60000","0.46637","699.228"
"5.80000","0.48351","720.941"
"6.00000","0.50024","742.558"
"6.20000","0.51647","762.317"
"6.40000","0.53320","782.365"
"6.60000","0.55033","802.623"
"6.80000","0.56676","822.581"
"7.00000","0.58329","842.475"
"7.20000","0.60023","861.853"
"7.40000","0.61696","880.675"
"7.60000","0.63308","896.126"
"7.80000","0.65012","911.65"
"8.00000","0.66665","928.692"
"8.20000","0.68358","945.105"
"8.40000","0.69981","961.472"
"8.60000","0.71674","977.918"
"8.80000","0.73337","994.233"
"9.00000","0.74950","1010.46"
"9.20000","0.76684","1028.87"
"9.40000","0.78307","1044.91"
"9.60000","0.80020","1062.41"
"9.80000","0.81673","1078.45"
"10.00000","0.83376","1094.45"
"10.20000","0.85019","1110.76"
"10.40000","0.86652","1125.8"
"10.60000","0.88336","1142.03"
"10.80000","0.90039","1158"
"11.00000","0.91662","1174.21"
"11.20000","0.93315","1190.39"
"11.40000","0.95028","1206.95"
"11.60000","0.96651","1222.85"
"11.80000","0.98314","1238.12"
"12.00000","1.00018","1254.82"
"12.20000","1.01691","1270.91"
"12.40000","1.03313","1285.59"
"12.60000","1.04987","1300.95"
"12.80000","1.06710","1316.92"
"13.00000","1.08343","1332.17"
"13.20000","1.09986","1348.11"
"13.40000","1.11699","1363.64"
"13.60000","1.13363","1377.92"
"13.80000","1.14965","1392.68"
"14.00000","1.16699","1407.46"
"14.20000","1.18332","1422.36"
"14.40000","1.19965","1436.33"
"14.60000","1.21648","1451.35"
"14.80000","1.23331","1466.34"
"15.00000","1.24994","1479.63"
"15.20000","1.26657","1494.19"
"15.40000","1.28371","1508.93"
"15.60000","1.30044","1523.8"
"15.80000","1.31647","1537.8"
"16.00000","1.33340","1552.92"
"16.20000","1.35033","1567.65"
"16.40000","1.36656","1582.84"
"16.60000","1.38329","1597.3"
"16.80000","1.40033","1612.77"
"17.00000","1.41676","1627.08"
"17.20000","1.43308","1641.15"
"17.40000","1.45012","1657.16"
"17.60000","1.46705","1671.33"
"17.80000","1.48308","1686.41"
"18.00000","1.50001","1700.56"
"18.20000","1.51694","1715.18"
"18.40000","1.53337","1729.24"
"18.60000","1.54990","1743.86"
"18.80000","1.56724","1760.3"
"19.00000","1.58337","1774.27"
"19.20000","1.59990","1788.83"
"19.40000","1.61673","1804.05"
"19.60000","1.63366","1819.46"
"19.80000","1.64989","1834.5"
"20.00000","1.66652","1848.98"
"20.20000","1.68346","1863.27"
"20.40000","1.70019","1878.04"
"20.60000","1.71631","1892.25"
"20.80000","1.73375","1909.41"
"21.00000","1.75028","1922.94"
"21.20000","1.76661","1937.32"
"21.40000","1.78334","1952.61"
"21.60000","1.80048","1967.76"
"21.80000","1.81681","1982.64"
"22.00000","1.83334","1997.09"
"22.20000","1.84976","2011.87"
"22.40000","1.86700","2027.23"
"22.60000","1.88313","2042"
"22.80000","1.90006","2058.37"
"23.00000","1.91689","2073.13"
"23.20000","1.93342","2088.67"
"23.40000","1.94975","2101.98"
"23.60000","1.96709","2117.5"
"23.80000","1.98362","2133.94"
"24.00000","2.00005","2147.42"
"24.20000","2.01698","2162.85"
"24.40000","2.03361","2178.67"
"24.60000","2.04984","2193.22"
"24.80000","2.06657","2209.15"
"25.00000","2.08361","2224.26"
"25.20000","2.10014","2238.52"
"25.40000","2.11626","2253.07"
"25.60000","2.13330","2269.43"
"25.80000","2.15013","2284.04"
"26.00000","2.16656","2298.27"
"26.20000","2.18359","2313.88"
"26.40000","2.20033","2329.07"
"26.60000","2.21665","2344.65"
"26.80000","2.23339","2359.55"
"27.00000","2.25012","2375.29"
"27.20000","2.26715","2390.16"
"27.40000","2.28308","2405.12"
"27.60000","2.30021","2421.53"
"27.80000","2.31684","2435.95"
"28.00000","2.33307","2451.22"
"28.20000","2.34990","2466.76"
"28.40000","2.36704","2482.79"
"28.60000","2.38337","2497.36"
"28.80000","2.40000","2512.29"
"29.00000","2.41693","2529.12"
"29.20000","2.43366","2543.33"
"29.40000","2.44999","2558.18"
"29.60000","2.46642","2574.05"
"29.80000","2.48366","2588.22"
"30.00000","2.49988","2603.28"
"30.20000","2.51641","2617.89"
"30.40000","2.53375","2634.36"
"30.60000","2.54998","2649.45"
"30.80000","2.56641","2664.18"
"31.00000","2.58344","2679.82"
"31.20000","2.60017","2695.53"
"31.40000","2.61670","2711.35"
"31.60000","2.63364","2726.51"
"31.80000","2.65027","2742.09"
"32.00000","2.66700","2756.72"
"32.20000","2.68323","2771.55"
"32.40000","2.70046","2786.73"
"32.60000","2.71669","2801.61"
"32.80000","2.73342","2817.49"
"33.00000","2.75026","2832.28"
"33.20000","2.76689","2847.42"
"33.40000","2.78332","2863.98"
"33.60000","2.79974","2878.62"
"33.80000","2.81668","2893.06"
"34.00000","2.83331","2908.4"
"34.20000","2.84994","2922.84"
"34.40000","2.86677","2939.47"
"34.60000","2.88361","2954.41"
"34.80000","2.89983","2968.84"
"35.00000","2.91667","2984.34"
"35.20000","2.93390","2999.88"
"35.40000","2.95003","3014.76"
"35.60000","2.96666","3029.46"
"35.80000","2.98349","3044.71"
"36.00000","3.00032","3059.24"
"36.20000","3.01615","3073.29"
"36.40000","3.03338","3089.51"
"36.60000","3.04981","3103.91"
"36.80000","3.06665","3119.67"
"37.00000","3.08318","3134.17"
"37.20000","3.10021","3149.19"
"37.40000","3.11704","3163.04"
"37.60000","3.13317","3178.72"
"37.80000","3.15041","3193.01"
"38.00000","3.16684","3208.26"
"38.20000","3.18326","3221.75"
"38.40000","3.20010","3238.09"
"38.60000","3.21693","3253"
"38.80000","3.23336","3267.46"
"39.00000","3.24979","3280.96"
"39.20000","3.26652","3295.89"
"39.40000","3.28365","3311.82"
"39.60000","3.29978","3325.31"
"39.80000","3.31672","3340.43"
"40.00000","3.33365","3354.48"
"40.20000","3.34978","3368.26"
"40.40000","3.36661","3382.7"
"40.60000","3.38364","3397.03"
"40.80000","3.40037","3411.39"
"41.00000","3.41650","3425.85"
"41.20000","3.43323","3439.3"
"41.40000","3.45047","3454.28"
"41.60000","3.46649","3467.45"
"41.80000","3.48323","3482.76"
"42.00000","3.50016","3496.58"
"42.20000","3.51709","3510.1"
"42.40000","3.53292","3523.75"
"42.60000","3.55056","3539.05"
"42.80000","3.56689","3551.89"
"43.00000","3.58342","3565.41"
"43.20000","3.60015","3578.74"
"43.40000","3.61698","3592.14"
"43.60000","3.63321","3604.79"
"43.80000","3.64994","3617.85"
"44.00000","3.66707","3631.33"
"44.20000","3.68340","3643.88"
"44.40000","3.69963","3656.82"
"44.60000","3.71687","3669.08"
"44.80000","3.73370","3682.51"
"45.00000","3.74993","3695.27"
"45.20000","3.76666","3707.49"
"45.40000","3.78349","3719.62"
"45.60000","3.80022","3731.16"
"45.80000","3.81645","3741.55"
"46.00000","3.83338","3754.63"
"46.20000","3.85032","3765.41"
"46.40000","3.86654","3775.94"
"46.60000","3.88348","3786.86"
"46.80000","3.90011","3796.05"
"47.00000","3.91654","3806.62"
"47.20000","3.93327","3816.2"
"47.40000","3.95051","3824.92"
"47.60000","3.96653","3833.25"
"47.80000","3.98316","3841.1"
"48.00000","4.00010","3850.39"
"48.20000","4.01703","3856.38"
"48.40000","4.03326","3861.16"
"48.60000","4.04989","3866.76"
"48.80000","4.06682","3871.55"
"49.00000","4.08355","3873.96"
"49.20000","4.09978","3875.24"
"49.40000","4.11712","3876.72"
"49.60000","4.13355","3872.53"
"49.80000","4.14977","3864.13"
"50.00000","4.16671","3853.79"
"50.20000","4.18344","3833.9"
"50.40000","4.20007","3795.18"
"50.60000","4.21670","3675.14"
"50.63200","4.21962","3008.23"
"50.64000","4.22043","2197.17"

File: Sequence_43.csv
General : Start date,"10/29/2024 10:50 AM"
General : End date,"10/29/2024 10:51 AM"
Specimen notes : Specimen note 1,"Day 2, blue, 230, batch 2, seq 43"
Test : Rate 1,"5.00000",mm/min

Time,Extension,Load
(s),(mm),(N)
"0.00000","0.00000","0.07471"
"0.20000","0.00806","7.68195"
"0.40000","0.03165","51.94796"
"0.60000","0.04929","79.97307"
"0.80000","0.06642","109.391"
"1.00000","0.08305","136.539"
"1.20000","0.09999","163.958"
"1.40000","0.11702","191.665"
"1.60000","0.13355","218.464"
"1.80000","0.14988","244.201"
"2.00000","0.16671","271.183"
"2.20000","0.18365","298.071"
"2.40000","0.19987","323.96"
"2.60000","0.21671","349.064"
"2.80000","0.23364","375.736"
"3.00000","0.25007","401.441"
"3.20000","0.26650","426.137"
"3.40000","0.28333","451.691"
"3.60000","0.30006","476.742"
"3.80000","0.31649","499.887"
"4.00000","0.33343","525.751"
"4.20000","0.34996","550.685"
"4.40000","0.36689","574.38"
"4.60000","0.38322","597.904"
"4.80000","0.40045","622.872"
"5.00000","0.41698","645.199"
"5.20000","0.43311","666.908"
"5.40000","0.45025","690.19"
"5.60000","0.46698","712.415"
"5.80000","0.48331","733.882"
"6.00000","0.49973","756.355"
"6.20000","0.51677","778.909"
"6.40000","0.53340","800.536"
"6.60000","0.54973","820.857"
"6.80000","0.56686","842.535"
"7.00000","0.58349","863.186"
"7.20000","0.59982","882.801"
"7.40000","0.61666","903.766"
"7.60000","0.63369","925.58"
"7.80000","0.64992","944.488"
"8.00000","0.66675","964.294"
"8.20000","0.68318","983.299"
"8.40000","0.70031","1000.52"
"8.60000","0.71634","1017.2"
"8.80000","0.73348","1035.92"
"9.00000","0.75011","1052.43"
"9.20000","0.76623","1069.05"
"9.40000","0.78307","1086.64"
"9.60000","0.80020","1105.38"
"9.80000","0.81673","1122.41"
"10.00000","0.83336","1140.08"
"10.20000","0.85040","1157.48"
"10.40000","0.86703","1174.1"
"10.60000","0.88315","1190.77"
"10.80000","0.89999","1208.33"
"11.00000","0.91702","1225.17"
"11.20000","0.93335","1242.06"
"11.40000","0.94978","1258.69"
"11.60000","0.96701","1276.16"
"11.80000","0.98334","1293.18"
"12.00000","0.99977","1310.26"
"12.20000","1.01691","1327.11"
"12.40000","1.03364","1343.14"
"12.60000","1.04987","1358.85"
"12.80000","1.06660","1375.39"
"13.00000","1.08343","1393.22"
"13.20000","1.10026","1409.73"
"13.40000","1.11659","1425.46"
"13.60000","1.13373","1442.85"
"13.80000","1.15026","1458.95"
"14.00000","1.16638","1474.67"
"14.20000","1.18342","1490.35"
"14.40000","1.20005","1505.08"
"14.60000","1.21638","1521.2"
"14.80000","1.23291","1535.6"
"15.00000","1.25004","1552.4"
"15.20000","1.26688","1567.29"
"15.40000","1.28330","1582.36"
"15.60000","1.30004","1598.71"
"15.80000","1.31697","1613.08"
"16.00000","1.33330","1627.82"
"16.20000","1.35003","1643.69"
"16.40000","1.36727","1659.58"
"16.60000","1.38339","1674.57"
"16.80000","1.39992","1690.27"
"17.00000","1.41686","1705.4"
"17.20000","1.43339","1720.62"
"17.40000","1.44961","1734.34"
"17.60000","1.46665","1749.32"
"17.80000","1.48338","1764.25"
"18.00000","1.50021","1778.87"
"18.20000","1.51644","1793.73"
"18.40000","1.53358","1809.3"
"18.60000","1.55021","1825.32"
"18.80000","1.56653","1840.62"
"19.00000","1.58367","1856.28"
"19.20000","1.60020","1871.46"
"19.40000","1.61683","1886.56"
"19.60000","1.63326","1901.18"
"19.80000","1.65019","1916.58"
"20.00000","1.66672","1931.58"
"20.20000","1.68315","1945.7"
"20.40000","1.69999","1961.53"
"20.60000","1.71702","1977.96"
"20.80000","1.73305","1991.29"
"21.00000","1.75008","2007.58"
"21.20000","1.76701","2022.88"
"21.40000","1.78324","2036.68"
"21.60000","1.79977","2051.29"
"21.80000","1.81701","2067.89"
"22.00000","1.83354","2082.82"
"22.20000","1.84987","2098.51"
"22.40000","1.86660","2114.25"
"22.60000","1.88373","2128.28"
"22.80000","1.89986","2144.18"
"23.00000","1.91659","2158.56"
"23.20000","1.93352","2174.62"
"23.40000","1.95016","2189.28"
"23.60000","1.96628","2205.2"
"23.80000","1.98362","2219.29"
"24.00000","2.00005","2235.4"
"24.20000","2.01668","2250.27"
"24.40000","2.03361","2265.57"
"24.60000","2.05034","2281.52"
"24.80000","2.06647","2295.65"
"25.00000","2.08310","2310.83"
"25.20000","2.10024","2325.84"
"25.40000","2.11687","2340.56"
"25.60000","2.13299","2355.55"
"25.80000","2.15003","2369.94"
"26.00000","2.16696","2385.54"
"26.20000","2.18319","2400.35"
"26.40000","2.20002","2415.74"
"26.60000","2.21686","2431.27"
"26.80000","2.23359","2446.23"
"27.00000","2.24992","2459.91"
"27.20000","2.26675","2477"
"27.40000","2.28358","2491.34"
"27.60000","2.29981","2505.76"
"27.80000","2.31664","2520.4"
"28.00000","2.33347","2535.66"
"28.20000","2.35000","2549.85"
"28.40000","2.36643","2563.68"
"28.60000","2.38377","2579.22"
"28.80000","2.39990","2594.08"
"29.00000","2.41663","2608.54"
"29.20000","2.43346","2622.98"
"29.40000","2.45019","2638.22"
"29.60000","2.46662","2653.13"
"29.80000","2.48325","2667.48"
"30.00000","2.50029","2682.59"
"30.20000","2.51682","2697.58"
"30.40000","2.53304","2711.36"
"30.60000","2.55008","2727.19"
"30.80000","2.56681","2741.91"
"31.00000","2.58314","2755.88"
"31.20000","2.59997","2771.06"
"31.40000","2.61660","2787.3"
"31.60000","2.63354","2801.6"
"31.80000","2.65007","2815.88"
"32.00000","2.66670","2830.95"
"32.20000","2.68393","2845.38"
"32.40000","2.69996","2859.88"
"32.60000","2.71699","2874.49"
"32.80000","2.73352","2889.6"
"33.00000","2.75015","2903.13"
"33.20000","2.76648","2917.13"
"33.40000","2.78372","2932.18"
"33.60000","2.79985","2945.9"
"33.80000","2.81638","2960.31"
"34.00000","2.83341","2974.21"
"34.20000","2.85014","2988.5"
"34.40000","2.86637","3002.63"
"34.60000","2.88330","3018.38"
"34.80000","2.90044","3032.98"
"35.00000","2.91677","3046.89"
"35.20000","2.93309","3061.06"
"35.40000","2.95053","3075.87"
"35.60000","2.96686","3089.3"
"35.80000","2.98319","3103.83"
"36.00000","3.00012","3117.81"
"36.20000","3.01695","3131.54"
"36.40000","3.03318","3144.98"
"36.60000","3.04991","3159.53"
"36.80000","3.06644","3172.67"
"37.00000","3.08338","3186.72"
"37.20000","3.09961","3200.91"
"37.40000","3.11694","3214.14"
"37.60000","3.13357","3229.19"
"37.80000","3.15000","3242.48"
"38.00000","3.16684","3256.68"
"38.20000","3.18357","3270.8"
"38.40000","3.19990","3284.86"
"38.60000","3.21683","3298.8"
"38.80000","3.23356","3312.94"
"39.00000","3.24999","3326.29"
"39.20000","3.26652","3340.07"
"39.40000","3.28325","3353.6"
"39.60000","3.30029","3366.61"
"39.80000","3.31651","3380.5"
"40.00000","3.33314","3393.5"
"40.20000","3.35038","3408.53"
"40.40000","3.36661","3421.79"
"40.60000","3.38324","3435"
"40.80000","3.40027","3449.21"
"41.00000","3.41701","3463.06"
"41.20000","3.43323","3475.4"
"41.40000","3.44996","3488.83"
"41.60000","3.46690","3503.29"
"41.80000","3.48353","3515.56"
"42.00000","3.49976","3528.85"
"42.20000","3.51679","3541.83"
"42.40000","3.53352","3555.32"
"42.60000","3.54975","3567.49"
"42.80000","3.56699","3580.19"
"43.00000","3.58342","3592.34"
"43.20000","3.60015","3605.26"
"43.40000","3.61658","3617.85"
"43.60000","3.63361","3630.23"
"43.80000","3.65004","3643.02"
"44.00000","3.66657","3654.87"
"44.20000","3.68370","3667.25"
"44.40000","3.70034","3679.26"
"44.60000","3.71646","3690.93"
"44.80000","3.73330","3702.43"
"45.00000","3.75033","3715.67"
"45.20000","3.76666","3726.94"
"45.40000","3.78319","3737.75"
"45.60000","3.80012","3750.47"
"45.80000","3.81685","3761.76"
"46.00000","3.83318","3771.35"
"46.20000","3.85001","3783.16"
"46.40000","3.86705","3792.92"
"46.60000","3.88338","3803.62"
"46.80000","3.89971","3814.27"
"47.00000","3.91684","3822.93"
"47.20000","3.93327","3832.83"
"47.40000","3.94970","3841.37"
"47.60000","3.96704","3850.71"
"47.80000","3.98336","3858.24"
"48.00000","3.99989","3866.14"
"48.20000","4.01673","3873.34"
"48.40000","4.03366","3879.4"
"48.60000","4.04999","3885.24"
"48.80000","4.06662","3890.9"
"49.00000","4.08355","3895.27"
"49.20000","4.10039","3899.31"
"49.40000","4.11651","3901.84"
"49.60000","4.13355","3904.14"
"49.80000","4.15038","3903.16"
"50.00000","4.16641","3900.28"
"50.20000","4.18324","3897.19"
"50.40000","4.20027","3891.83"
"50.60000","4.21670","3880.57"
"50.80000","4.23313","3865.73"
"51.00000","4.24986","3843.51"
"51.20000","4.26710","3799.98"
"51.33600","4.27829","3446.71"
"51.34400","4.27899","2719.24"
"51.35000","4.27970","2083.37"