Folder: 3D-Filament-Dyes/Data_Processing/Tensile-Data (part 5)

File: Sequence_14.csv
General : Start date,"10/22/2024 9:51 AM"
General : End date,"10/22/2024 9:51 AM"
Specimen notes : Specimen note 1,"blue, 200, batch 3, seq 14"
Test : Rate 1,"5.00000",mm/min

Time,Extension,Load
(s),(mm),(N)
"0.00000","0.00000","0.07399"
"0.20000","0.01462","19.85172"
"0.40000","0.03266","55.08055"
"0.60000","0.05020","87.53728"
"0.80000","0.06703","112.49"
"1.00000","0.08326","141.293"
"1.20000","0.10019","155.752"
"1.40000","0.11712","186.631"
"1.60000","0.13375","213.233"
"1.80000","0.15008","241.595"
"2.00000","0.16702","270.797"
"2.20000","0.18375","298.273"
"2.40000","0.19997","325.058"
"2.60000","0.21671","352.8"
"2.80000","0.23374","380.043"
"3.00000","0.25017","407.953"
"3.20000","0.26670","435.374"
"3.40000","0.28373","464.172"
"3.60000","0.30037","492.218"
"3.80000","0.31649","518.481"
"4.00000","0.33353","545.429"
"4.20000","0.35036","573.007"
"4.40000","0.36659","599.838"
"4.60000","0.38342","627.017"
"4.80000","0.40045","654.798"
"5.00000","0.41688","681.019"
"5.20000","0.43331","708.239"
"5.40000","0.45035","734.634"
"5.60000","0.46728","761.265"
"5.80000","0.48331","788.091"
"6.00000","0.50014","812.976"
"6.20000","0.51667","839.933"
"6.40000","0.53350","866.326"
"6.60000","0.54973","890.983"
"6.80000","0.56686","918.967"
"7.00000","0.58360","944.758"
"7.20000","0.59992","969.473"
"7.40000","0.61696","995.694"
"7.60000","0.63359","1021.75"
"7.80000","0.65002","1047.16"
"8.00000","0.66665","1073.39"
"8.20000","0.68378","1100.5"
"8.40000","0.70021","1125.35"
"8.60000","0.71674","1150.5"
"8.80000","0.73348","1176.11"
"9.00000","0.75061","1201.45"
"9.20000","0.76664","1225.51"
"9.40000","0.78317","1251.28"
"9.60000","0.80030","1276.82"
"9.80000","0.81643","1300.52"
"10.00000","0.83336","1324.92"
"10.20000","0.85019","1350.26"
"10.40000","0.86703","1375.29"
"10.60000","0.88346","1398.62"
"10.80000","0.90019","1423.73"
"11.00000","0.91692","1447.24"
"11.20000","0.93355","1471.95"
"11.40000","0.94988","1495.71"
"11.60000","0.96701","1520.62"
"11.80000","0.98375","1544.47"
"12.00000","0.99967","1566.74"
"12.20000","1.01711","1589.93"
"12.40000","1.03344","1613.26"
"12.60000","1.05007","1637.54"
"12.80000","1.06670","1659.78"
"13.00000","1.08363","1684.43"
"13.20000","1.09996","1706.33"
"13.40000","1.11629","1728.9"
"13.60000","1.13353","1753.39"
"13.80000","1.15036","1776.37"
"14.00000","1.16638","1797.3"
"14.20000","1.18352","1821.31"
"14.40000","1.20055","1843.89"
"14.60000","1.21668","1867.07"
"14.80000","1.23341","1888.32"
"15.00000","1.25034","1912.03"
"15.20000","1.26688","1933.02"
"15.40000","1.28320","1955.68"
"15.60000","1.30014","1977.93"
"15.80000","1.31697","2000.14"
"16.00000","1.33330","2022.1"
"16.20000","1.35003","2044.42"
"16.40000","1.36686","2066"
"16.60000","1.38349","2087.4"
"16.80000","1.39982","2107.2"
"17.00000","1.41726","2129.51"
"17.20000","1.43349","2150.17"
"17.40000","1.45012","2170.84"
"17.60000","1.46695","2187.58"
"17.80000","1.48368","2209.09"
"18.00000","1.49991","2230.1"
"18.20000","1.51654","2249.43"
"18.40000","1.53368","2270.95"
"18.60000","1.55031","2289.86"
"18.80000","1.56664","2310.04"
"19.00000","1.58357","2329.24"
"19.20000","1.60030","2350.63"
"19.40000","1.61663","2370.57"
"19.60000","1.63336","2389.51"
"19.80000","1.65029","2410.28"
"20.00000","1.66682","2428.71"
"20.20000","1.68346","2444.04"
"20.40000","1.69988","2462.4"
"20.60000","1.71712","2483.04"
"20.80000","1.73325","2501.7"
"21.00000","1.75038","2431.17"
"21.20000","1.76681","2453.66"
"21.40000","1.78374","2476.88"
"21.60000","1.79987","2497.81"
"21.80000","1.81721","2521.36"
"22.00000","1.83354","2543.62"
"22.20000","1.84997","2563.77"
"22.40000","1.86690","2585.43"
"22.60000","1.88363","2606.66"
"22.80000","1.89986","2627.14"
"23.00000","1.91649","2647.29"
"23.20000","1.93373","2668.7"
"23.40000","1.95026","2687.01"
"23.60000","1.96638","2706.65"
"23.80000","1.98372","2725.54"
"24.00000","2.00025","2743.99"
"24.20000","2.01668","2763.16"
"24.40000","2.03351","2782.94"
"24.60000","2.05055","2802.04"
"24.80000","2.06677","2820.58"
"25.00000","2.08340","2838.93"
"25.20000","2.10024","2857.91"
"25.40000","2.11717","2875.28"
"25.60000","2.13299","2892.26"
"25.80000","2.15023","2911.22"
"26.00000","2.16686","2928.45"
"26.20000","2.18339","2946.27"
"26.40000","2.19992","2891.02"
"26.60000","2.21706","2916.95"
"26.80000","2.23349","2937.03"
"27.00000","2.25002","2956.94"
"27.20000","2.26695","2976.58"
"27.40000","2.28368","2997.16"
"27.60000","2.30001","3007.58"
"27.80000","2.31664","3025.15"
"28.00000","2.33368","3045.42"
"28.20000","2.35000","3063.34"
"28.40000","2.36653","3080.98"
"28.60000","2.38387","3100.34"
"28.80000","2.40000","3117.69"
"29.00000","2.41653","3126.12"
"29.20000","2.43366","3144.9"
"29.40000","2.45039","3162.06"
"29.60000","2.46652","3177.65"
"29.80000","2.48335","3194.52"
"30.00000","2.50029","3211.78"
"30.20000","2.51712","3228.8"
"30.40000","2.53315","3243.81"
"30.60000","2.55048","3261.32"
"30.80000","2.56691","3275.87"
"31.00000","2.58324","3291.16"
"31.20000","2.60017","3304.19"
"31.40000","2.61680","3319.98"
"31.60000","2.63323","3334.08"
"31.80000","2.64997","3349.56"
"32.00000","2.66680","3364.77"
"32.20000","2.68363","3379.3"
"32.40000","2.69986","3392.95"
"32.60000","2.71709","3407.49"
"32.80000","2.73393","3423.09"
"33.00000","2.74995","3435.63"
"33.20000","2.76658","3366.74"
"33.40000","2.78392","3386.89"
"33.60000","2.79995","3403.14"
"33.80000","2.81678","3420.26"
"34.00000","2.83351","3435.97"
"34.20000","2.85014","3453.66"
"34.40000","2.86657","3467.17"
"34.60000","2.88350","3483.61"
"34.80000","2.90034","3499.05"
"35.00000","2.91697","3512.22"
"35.20000","2.93309","3525.83"
"35.40000","2.95043","3539.33"
"35.60000","2.96686","3552.95"
"35.80000","2.98329","3565.84"
"36.00000","3.00053","3579.82"
"36.20000","3.01685","3592.53"
"36.40000","3.03369","3602.97"
"36.60000","3.05002","3614.93"
"36.80000","3.06695","3625.88"
"37.00000","3.08348","3637.06"
"37.20000","3.09971","3647.31"
"37.40000","3.11684","3655.78"
"37.60000","3.13377","3665.34"
"37.80000","3.14980","3673.51"
"38.00000","3.16704","3684.34"
"38.20000","3.18387","3692.49"
"38.40000","3.19990","3700.7"
"38.60000","3.21663","3708.1"
"38.80000","3.23366","3716.8"
"39.00000","3.25029","3724.42"
"39.20000","3.26662","3729.27"
"39.40000","3.28335","3735.41"
"39.60000","3.30069","3739.24"
"39.80000","3.31661","3743.09"
"40.00000","3.33325","3746.24"
"40.20000","3.35028","3749.56"
"40.40000","3.36691","3750.77"
"40.60000","3.38314","3750.66"
"40.80000","3.40058","3734.55"
"41.00000","3.41690","3733.37"
"41.20000","3.43354","3733.46"
"41.40000","3.45017","3732.37"
"41.60000","3.46690","3732.42"
"41.80000","3.48323","3729.43"
"42.00000","3.49976","3725.48"
"42.20000","3.51709","3719.97"
"42.40000","3.53362","3701.62"
"42.60000","3.54965","3644.72"
"42.80000","3.56719","3463.13"
"43.00000","3.58382","3384.24"
"43.20000","3.59995","3332.03"
"43.40000","3.61688","3244.35"
"43.43600","3.62000","2605.25"
"43.44400","3.62091","1885.25"

File: Sequence_15.csv
General : Start date,"10/22/2024 9:53 AM"
General : End date,"10/22/2024 9:54 AM"
Specimen notes : Specimen note 1,"green, 200, batch 2, seq 15"
Test : Rate 1,"5.00000",mm/min

Time,Extension,Load
(s),(mm),(N)
"0.00000","0.00000","-0.73047"
"0.20000","0.00867","7.86480"
"0.40000","0.03256","53.07104"
"0.60000","0.04959","83.04321"
"0.80000","0.06642","110.753"
"1.00000","0.08356","129.525"
"1.20000","0.10029","157.407"
"1.40000","0.11642","184.395"
"1.60000","0.13345","212.074"
"1.80000","0.15028","240.449"
"2.00000","0.16691","267.783"
"2.20000","0.18334","294.589"
"2.40000","0.20028","322.224"
"2.60000","0.21701","349.159"
"2.80000","0.23344","374.778"
"3.00000","0.25017","403.371"
"3.20000","0.26690","431.633"
"3.40000","0.28353","456.508"
"3.60000","0.29996","483.419"
"3.80000","0.31700","510.617"
"4.00000","0.33353","537.69"
"4.20000","0.34985","564.097"
"4.40000","0.36689","591.44"
"4.60000","0.38362","619.59"
"4.80000","0.39995","644.758"
"5.00000","0.41668","670.698"
"5.20000","0.43382","697.092"
"5.40000","0.44994","722.558"
"5.60000","0.46667","747.678"
"5.80000","0.48361","774.664"
"6.00000","0.50024","800.573"
"6.20000","0.51657","825.579"
"6.40000","0.53360","851.626"
"6.60000","0.55053","879.196"
"6.80000","0.56676","903.712"
"7.00000","0.58339","927.857"
"7.20000","0.60002","953.748"
"7.40000","0.61696","979.2"
"7.60000","0.63288","1003.03"
"7.80000","0.65002","1029.97"
"8.00000","0.66685","1055.39"
"8.20000","0.68328","1079.79"
"8.40000","0.70011","1105.68"
"8.60000","0.71695","1129.24"
"8.80000","0.73337","1153.74"
"9.00000","0.75001","1179.29"
"9.20000","0.76704","1205.19"
"9.40000","0.78357","1230.46"
"9.60000","0.80000","1254.48"
"9.80000","0.81663","1279.21"
"10.00000","0.83397","1303.72"
"10.20000","0.85009","1326.74"
"10.40000","0.86652","1351.66"
"10.60000","0.88366","1376.56"
"10.80000","0.89989","1398.83"
"11.00000","0.91642","1422.55"
"11.20000","0.93345","1446.05"
"11.40000","0.95028","1471.43"
"11.60000","0.96671","1495.27"
"11.80000","0.98344","1518.8"
"12.00000","1.00007","1541.66"
"12.20000","1.01701","1565.12"
"12.40000","1.03324","1587.57"
"12.60000","1.05047","1611.85"
"12.80000","1.06690","1634.7"
"13.00000","1.08313","1657.5"
"13.20000","1.10026","1680.27"
"13.40000","1.11699","1703.6"
"13.60000","1.13353","1727.25"
"13.80000","1.15006","1750.08"
"14.00000","1.16679","1770.65"
"14.20000","1.18332","1793.4"
"14.40000","1.19965","1812.91"
"14.60000","1.21688","1836.36"
"14.80000","1.23371","1859.28"
"15.00000","1.24984","1881.39"
"15.20000","1.26667","1903.27"
"15.40000","1.28391","1925.51"
"15.60000","1.30014","1946.13"
"15.80000","1.31657","1967.14"
"16.00000","1.33350","1988.85"
"16.20000","1.35033","2011.37"
"16.40000","1.36656","2030.98"
"16.60000","1.38359","2053.81"
"16.80000","1.39992","2075.77"
"17.00000","1.41696","2097.71"
"17.20000","1.43318","2118.22"
"17.40000","1.45022","2140.21"
"17.60000","1.46695","2160.46"
"17.80000","1.48328","2179.65"
"18.00000","1.50041","2202.81"
"18.20000","1.51694","2221.46"
"18.40000","1.53337","2240.19"
"18.60000","1.54990","2261.74"
"18.80000","1.56694","2282.91"
"19.00000","1.58347","2301.59"
"19.20000","1.59980","2321.95"
"19.40000","1.61693","2343"
"19.60000","1.63376","2361.01"
"19.80000","1.64989","2379.89"
"20.00000","1.66682","2400.26"
"20.20000","1.68376","2419.85"
"20.40000","1.69999","2437.65"
"20.60000","1.71662","2455.27"
"20.80000","1.73355","2476.18"
"21.00000","1.75038","2495.4"
"21.20000","1.76641","2514.1"
"21.40000","1.78334","2534.04"
"21.60000","1.80078","2552.83"
"21.80000","1.81670","2570.76"
"22.00000","1.83344","2589.02"
"22.20000","1.85017","2608.88"
"22.40000","1.86700","2627.31"
"22.60000","1.88313","2646.48"
"22.80000","1.90056","2665.4"
"23.00000","1.91689","2680.82"
"23.20000","1.93332","2694.85"
"23.40000","1.95016","2713.12"
"23.60000","1.96719","2732.14"
"23.80000","1.98311","2748.46"
"24.00000","1.99985","2764.37"
"24.20000","2.01718","2782.03"
"24.40000","2.03341","2799.07"
"24.60000","2.04974","2816.33"
"24.80000","2.06708","2834.76"
"25.00000","2.08361","2850.52"
"25.20000","2.09983","2868.53"
"25.40000","2.11667","2883.98"
"25.60000","2.13360","2901.85"
"25.80000","2.15033","2861.08"
"26.00000","2.16666","2865.6"
"26.20000","2.18359","2885.5"
"26.40000","2.20043","2905.76"
"26.60000","2.21655","2923.39"
"26.80000","2.23359","2941.62"
"27.00000","2.25002","2959.61"
"27.20000","2.26665","2977.6"
"27.40000","2.28318","2994.41"
"27.60000","2.30041","3013.15"
"27.80000","2.31674","3031.27"
"28.00000","2.33357","3047.52"
"28.20000","2.35031","3065.32"
"28.40000","2.36704","3081.57"
"28.60000","2.38327","3099.4"
"28.80000","2.39990","3114.79"
"29.00000","2.41703","3132.22"
"29.20000","2.43336","3148.58"
"29.40000","2.44989","3163.74"
"29.60000","2.46703","3179.94"
"29.80000","2.48345","3195.8"
"30.00000","2.49988","3209.96"
"30.20000","2.51682","3226.06"
"30.40000","2.53355","3240.71"
"30.60000","2.55018","3254.39"
"30.80000","2.56661","3270.3"
"31.00000","2.58354","3284.91"
"31.20000","2.60068","3299.43"
"31.40000","2.61630","3312.59"
"31.60000","2.63384","3327.77"
"31.80000","2.65027","3341.59"
"32.00000","2.66650","3355.37"
"32.20000","2.68333","3368.45"
"32.40000","2.70026","3381.79"
"32.60000","2.71669","3394.01"
"32.80000","2.73322","3406.87"
"33.00000","2.75015","3419.36"
"33.20000","2.76719","3433.14"
"33.40000","2.78311","3443.78"
"33.60000","2.80035","3457.24"
"33.80000","2.81728","3468.1"
"34.00000","2.83331","3415.29"
"34.20000","2.85004","3430.52"
"34.40000","2.86728","3447.64"
"34.60000","2.88340","3460.67"
"34.80000","2.89983","3474.94"
"35.00000","2.91677","3488.85"
"35.20000","2.93350","3493.4"
"35.40000","2.94983","3504.5"
"35.60000","2.96666","3515.36"
"35.80000","2.98359","3524.44"
"36.00000","3.00042","3531.09"
"36.20000","3.01625","3535.09"
"36.40000","3.03379","3542.7"
"36.60000","3.05012","3551.81"
"36.80000","3.06655","3561.67"
"37.00000","3.08368","3570.46"
"37.20000","3.10041","3582.09"
"37.40000","3.11684","3591.13"
"37.60000","3.13337","3593.23"
"37.80000","3.15041","3542.22"
"38.00000","3.16684","3558.64"
"38.20000","3.18306","3571.48"
"38.40000","3.20030","3585.17"
"38.60000","3.21723","3597.4"
"38.80000","3.23336","3610.61"
"39.00000","3.25009","3621.68"
"39.20000","3.26733","3633.25"
"39.40000","3.28325","3644.34"
"39.60000","3.29998","3653.82"
"39.80000","3.31702","3664.63"
"40.00000","3.33365","3675.11"
"40.20000","3.34998","3683.71"
"40.40000","3.36671","3693.54"
"40.60000","3.38354","3703.03"
"40.80000","3.40017","3710.16"
"41.00000","3.41640","3716.72"
"41.20000","3.43384","3724.17"
"41.40000","3.45037","3726.34"
"41.60000","3.46649","3731.2"
"41.80000","3.48363","3737.04"
"42.00000","3.50006","3740.83"
"42.20000","3.51679","3743.51"
"42.40000","3.53342","3744.31"
"42.60000","3.55025","3746.78"
"42.80000","3.56678","3745.51"
"43.00000","3.58331","3743.31"
"43.20000","3.60025","3741.18"
"43.40000","3.61708","3734.74"
"43.60000","3.63311","3724.12"
"43.80000","3.65024","3701.39"
"44.00000","3.66717","3606.11"
"44.13600","3.67826","3194.22"
"44.14400","3.67897","2522.71"
"44.15000","3.67967","1936.98"

File: Sequence_16.csv
General : Start date,"10/22/2024 9:55 AM"
General : End date,"10/22/2024 9:56 AM"
Specimen notes : Specimen note 1,"green, 200, batch 7, seq 16"
Test : Rate 1,"5.00000",mm/min

Time,Extension,Load
(s),(mm),(N)
"0.00000","0.00000","-0.46137"
"0.20000","0.00988","9.44160"
"0.40000","0.03246","48.91557"
"0.60000","0.04989","76.14305"
"0.80000","0.06642","103.711"
"1.00000","0.08336","130.245"
"1.20000","0.10059","144.204"
"1.40000","0.11692","171.469"
"1.60000","0.13345","198.531"
"1.80000","0.15038","227.38"
"2.00000","0.16732","254.908"
"2.20000","0.18334","282.156"
"2.40000","0.20018","309.53"
"2.60000","0.21701","336.889"
"2.80000","0.23354","364.899"
"3.00000","0.25007","391.848"
"3.20000","0.26700","420.377"
"3.40000","0.28373","447.559"
"3.60000","0.30026","475.56"
"3.80000","0.31700","502.272"
"4.00000","0.33373","529.692"
"4.20000","0.35026","556.714"
"4.40000","0.36659","583.183"
"4.60000","0.38362","611.812"
"4.80000","0.40045","639.343"
"5.00000","0.41678","666.769"
"5.20000","0.43382","693.854"
"5.40000","0.45045","721.22"
"5.60000","0.46678","747.793"
"5.80000","0.48341","774.201"
"6.00000","0.50054","801.692"
"6.20000","0.51677","828.763"
"6.40000","0.53340","854.321"
"6.60000","0.55033","882.16"
"6.80000","0.56706","909.461"
"7.00000","0.58319","935.189"
"7.20000","0.60033","962.397"
"7.40000","0.61726","989.529"
"7.60000","0.63339","1014.69"
"7.80000","0.65012","1040.18"
"8.00000","0.66665","1067.1"
"8.20000","0.68378","1094.65"
"8.40000","0.69971","1118.74"
"8.60000","0.71695","1146.48"
"8.80000","0.73368","1172.25"
"9.00000","0.75011","1198.23"
"9.20000","0.76664","1223.2"
"9.40000","0.78387","1251.1"
"9.60000","0.80010","1275.17"
"9.80000","0.81673","1302.2"
"10.00000","0.83376","1327.54"
"10.20000","0.85050","1352.12"
"10.40000","0.86683","1376.93"
"10.60000","0.88346","1403.02"
"10.80000","0.90059","1427.75"
"11.00000","0.91682","1453.81"
"11.20000","0.93335","1478.72"
"11.40000","0.95038","1502.78"
"11.60000","0.96671","1527.19"
"11.80000","0.98304","1551.66"
"12.00000","1.00028","1575.96"
"12.20000","1.01711","1601.68"
"12.40000","1.03364","1626.32"
"12.60000","1.05037","1651.14"
"12.80000","1.06700","1675.42"
"13.00000","1.08373","1700.73"
"13.20000","1.10006","1724.24"
"13.40000","1.11720","1748.93"
"13.60000","1.13383","1771.43"
"13.80000","1.14995","1795.05"
"14.00000","1.16679","1819.11"
"14.20000","1.18362","1837.93"
"14.40000","1.20015","1862.19"
"14.60000","1.21678","1885.73"
"14.80000","1.23371","1908.82"
"15.00000","1.25024","1932.01"
"15.20000","1.26657","1954"
"15.40000","1.28361","1977.28"
"15.60000","1.30054","2002.19"
"15.80000","1.31667","2023.53"
"16.00000","1.33350","2045"
"16.20000","1.35053","2068.9"
"16.40000","1.36686","2090.81"
"16.60000","1.38349","2112.95"
"16.80000","1.40033","2135.66"
"17.00000","1.41716","2159.1"
"17.20000","1.43329","2179.93"
"17.40000","1.45022","2201.61"
"17.60000","1.46685","2224.21"
"17.80000","1.48368","2246.34"
"18.00000","1.49981","2267.94"
"18.20000","1.51694","2292.08"
"18.40000","1.53388","2313.16"
"18.60000","1.54990","2335.05"
"18.80000","1.56714","2345.83"
"19.00000","1.58367","2368.55"
"19.20000","1.60030","2388.6"
"19.40000","1.61673","2409.13"
"19.60000","1.63376","2431.13"
"19.80000","1.65019","2451.75"
"20.00000","1.66662","2472.85"
"20.20000","1.68366","2493.61"
"20.40000","1.70049","2515.83"
"20.60000","1.71662","2535.5"
"20.80000","1.73365","2554.06"
"21.00000","1.75048","2575.1"
"21.20000","1.76671","2595.02"
"21.40000","1.78344","2615.31"
"21.60000","1.80038","2636.14"
"21.80000","1.81711","2655.09"
"22.00000","1.83323","2674.72"
"22.20000","1.85007","2694.35"
"22.40000","1.86730","2714.65"
"22.60000","1.88333","2734.03"
"22.80000","1.90016","2753.31"
"23.00000","1.91709","2773.99"
"23.20000","1.93383","2793.49"
"23.40000","1.94995","2811.42"
"23.60000","1.96729","2832.51"
"23.80000","1.98362","2850.98"
"24.00000","2.00025","2869.82"
"24.20000","2.01698","2887.41"
"24.40000","2.03381","2906.73"
"24.60000","2.04994","2924.17"
"24.80000","2.06667","2942.17"
"25.00000","2.08391","2960.32"
"25.20000","2.10034","2975.73"
"25.40000","2.11636","2990.15"
"25.60000","2.13380","3005.41"
"25.80000","2.15053","3022.22"
"26.00000","2.16666","3037.22"
"26.20000","2.18349","3053.34"
"26.40000","2.20022","3069.7"
"26.60000","2.21706","3068.37"
"26.80000","2.23349","3069.81"
"27.00000","2.25032","3082.46"
"27.20000","2.26725","3097.29"
"27.40000","2.28328","3110.06"
"27.60000","2.30021","3124.09"
"27.80000","2.31694","3141.24"
"28.00000","2.33357","3153.48"
"28.20000","2.34970","3166.73"
"28.40000","2.36714","3182.39"
"28.60000","2.38337","3195.46"
"28.80000","2.40030","3209.66"
"29.00000","2.41723","3225.21"
"29.20000","2.43366","3236.75"
"29.40000","2.45009","3249.76"
"29.60000","2.46662","3263.32"
"29.80000","2.48376","3277.34"
"30.00000","2.50039","3291.03"
"30.20000","2.51651","3302.08"
"30.40000","2.53365","3315.11"
"30.60000","2.55028","3323.57"
"30.80000","2.56661","3291.92"
"31.00000","2.58364","3290.16"
"31.20000","2.60038","3301.56"
"31.40000","2.61691","3301.42"
"31.60000","2.63344","3312.59"
"31.80000","2.65017","3323.88"
"32.00000","2.66740","3337.23"
"32.20000","2.68313","3348.98"
"32.40000","2.70056","3362.14"
"32.60000","2.71719","3351.63"
"32.80000","2.73332","3364.52"
"33.00000","2.75015","3380.31"
"33.20000","2.76699","3393.59"
"33.40000","2.78332","3406.35"
"33.60000","2.79995","3419.52"
"33.80000","2.81698","3431.21"
"34.00000","2.83381","3445.05"
"34.20000","2.85004","3456.96"
"34.40000","2.86697","3469"
"34.60000","2.88411","3481.8"
"34.80000","2.90024","3492.17"
"35.00000","2.91656","3503.09"
"35.20000","2.93400","3514.48"
"35.40000","2.95033","3526.17"
"35.60000","2.96666","3536.67"
"35.80000","2.98369","3548.37"
"36.00000","3.00042","3558.82"
"36.20000","3.01665","3568.28"
"36.40000","3.03349","3578.22"
"36.60000","3.05022","3588.46"
"36.80000","3.06715","3597.25"
"37.00000","3.08308","3606.69"
"37.20000","3.10051","3615.91"
"37.40000","3.11704","3624.84"
"37.60000","3.13337","3632.32"
"37.80000","3.15041","3640.04"
"38.00000","3.16724","3648.25"
"38.20000","3.18367","3654.82"
"38.40000","3.20030","3661.31"
"38.60000","3.21713","3668.8"
"38.80000","3.23356","3674.15"
"39.00000","3.24979","3678.76"
"39.20000","3.26692","3684.32"
"39.40000","3.28406","3689.36"
"39.60000","3.30018","3692.29"
"39.80000","3.31692","3693.61"
"40.00000","3.33415","3695.29"
"40.20000","3.35018","3690.95"
"40.40000","3.36651","3681.34"
"40.60000","3.38374","3649.59"
"40.80000","3.40058","3390.89"
"41.00000","3.41690","3244.69"
"41.05800","3.42174","2571.91"
"41.06600","3.42265","1851.6"