Folder: 3D-Filament-Dyes/Data_Processing/Tensile-Data (part 6)

File: Sequence_17.csv
General : Start date,"10/22/2024 9:59 AM"
General : End date,"10/22/2024 10:00 AM"
Specimen notes : Specimen note 1,"purple, 200, batch 9, seq 17"
Test : Rate 1,"5.00000",mm/min

Time,Extension,Load
(s),(mm),(N)
"0.00000","-0.05332","5.82368"
"0.20000","-0.03951","25.53403"
"0.40000","-0.02016","64.83092"
"0.60000","-0.00292","95.89141"
"0.80000","0.01320","125.015"
"1.00000","0.03024","154.094"
"1.20000","0.04727","171.911"
"1.40000","0.06350","197.798"
"1.60000","0.07993","225.535"
"1.80000","0.09706","252.234"
"2.00000","0.11359","280.519"
"2.20000","0.13002","308.315"
"2.40000","0.14676","337.089"
"2.60000","0.16389","365.413"
"2.80000","0.17992","393.706"
"3.00000","0.19665","422.331"
"3.20000","0.21348","450.225"
"3.40000","0.23031","479.81"
"3.60000","0.24654","506.771"
"3.80000","0.26358","536.203"
"4.00000","0.28041","565.13"
"4.20000","0.29674","592.525"
"4.40000","0.31327","621.42"
"4.60000","0.33030","650.478"
"4.80000","0.34693","678.175"
"5.00000","0.36316","706.345"
"5.20000","0.38050","734.744"
"5.40000","0.39703","763.448"
"5.60000","0.41325","789.844"
"5.80000","0.43019","818.084"
"6.00000","0.44702","847.937"
"6.20000","0.46335","874.643"
"6.40000","0.47978","902.147"
"6.60000","0.49711","931.563"
"6.80000","0.51334","957.831"
"7.00000","0.52997","986.16"
"7.20000","0.54681","1013.29"
"7.40000","0.56354","1041.11"
"7.60000","0.57977","1067.38"
"7.80000","0.59680","1094.8"
"8.00000","0.61353","1122.81"
"8.20000","0.63016","1150.21"
"8.40000","0.64669","1177.22"
"8.60000","0.66332","1204.04"
"8.80000","0.68026","1230.59"
"9.00000","0.69638","1257.6"
"9.20000","0.71332","1284.35"
"9.40000","0.73015","1310.89"
"9.60000","0.74678","1338.18"
"9.80000","0.76321","1363.74"
"10.00000","0.78055","1390.59"
"10.20000","0.79677","1416.36"
"10.40000","0.81330","1442.54"
"10.60000","0.83024","1468.95"
"10.80000","0.84707","1496.49"
"11.00000","0.86340","1522.33"
"11.20000","0.87983","1547.32"
"11.40000","0.89686","1574.03"
"11.60000","0.91349","1600.42"
"11.80000","0.92982","1625.18"
"12.00000","0.94696","1652.12"
"12.20000","0.96339","1676.54"
"12.40000","0.97961","1701.03"
"12.60000","0.99675","1727.93"
"12.80000","1.01348","1752.78"
"13.00000","1.03021","1779.5"
"13.20000","1.04694","1804.84"
"13.40000","1.06357","1829.67"
"13.60000","1.08051","1854.96"
"13.80000","1.09653","1878.04"
"14.00000","1.11367","1906.43"
"14.20000","1.13030","1931.62"
"14.40000","1.14663","1955.16"
"14.60000","1.16316","1980.46"
"14.80000","1.18039","2005.03"
"15.00000","1.19692","2029.7"
"15.20000","1.21325","2054.27"
"15.40000","1.23019","2078.5"
"15.60000","1.24682","2103.3"
"15.80000","1.26304","2126.35"
"16.00000","1.27998","2150.69"
"16.20000","1.29711","2175.25"
"16.40000","1.31324","2199.62"
"16.60000","1.32997","2224.13"
"16.80000","1.34701","2249.61"
"17.00000","1.36364","2272.47"
"17.20000","1.37986","2295.65"
"17.40000","1.39690","2319.72"
"17.60000","1.41393","2344.31"
"17.80000","1.42986","2365.92"
"18.00000","1.44679","2390.03"
"18.20000","1.46342","2414.18"
"18.40000","1.48046","2437.05"
"18.60000","1.49618","2459.88"
"18.80000","1.51352","2485.14"
"19.00000","1.53035","2507.74"
"19.20000","1.54648","2530.32"
"19.40000","1.56351","2553.42"
"19.60000","1.58034","2575.68"
"19.80000","1.59667","2597.9"
"20.00000","1.61330","2620.85"
"20.20000","1.63024","2643.68"
"20.40000","1.64687","2665.73"
"20.60000","1.66320","2687.62"
"20.80000","1.68013","2710.65"
"21.00000","1.69706","2732.9"
"21.20000","1.71319","2754.98"
"21.40000","1.73012","2778.73"
"21.60000","1.74716","2800.62"
"21.80000","1.76328","2822.59"
"22.00000","1.78002","2844.17"
"22.20000","1.79685","2865.3"
"22.40000","1.81358","2888.03"
"22.60000","1.82991","2908.77"
"22.80000","1.84674","2930.47"
"23.00000","1.86378","2952.42"
"23.20000","1.88020","2972.46"
"23.40000","1.89653","2993.76"
"23.60000","1.91367","3015.7"
"23.80000","1.93020","3035.21"
"24.00000","1.94663","3056.54"
"24.20000","1.96376","3077.73"
"24.40000","1.98009","3099.36"
"24.60000","1.99692","3117.63"
"24.80000","2.01335","3137.39"
"25.00000","2.03019","3157.86"
"25.20000","2.04661","3178.69"
"25.40000","2.06314","3198.51"
"25.60000","2.08018","3218.72"
"25.80000","2.09691","3238.53"
"26.00000","2.11314","3258.19"
"26.20000","2.13017","3277.8"
"26.40000","2.14711","3299.21"
"26.60000","2.16333","3317.86"
"26.80000","2.17986","3336.4"
"27.00000","2.19680","3356.53"
"27.20000","2.21383","3377.23"
"27.40000","2.22986","3370.89"
"27.60000","2.24689","3223.69"
"27.80000","2.26382","3242.58"
"28.00000","2.28005","3260.57"
"28.20000","2.29648","3279.63"
"28.40000","2.31352","3299.05"
"28.60000","2.33005","3317.91"
"28.80000","2.34637","3336.49"
"29.00000","2.36361","3356.14"
"29.20000","2.37994","3374.08"
"29.40000","2.39687","3392.95"
"29.60000","2.41360","3410.55"
"29.80000","2.43024","3428.22"
"30.00000","2.44666","3445.24"
"30.20000","2.46319","3463.82"
"30.40000","2.48033","3480.16"
"30.60000","2.49696","3497.38"
"30.80000","2.51289","3513.62"
"31.00000","2.53022","3530.31"
"31.20000","2.54695","3546.9"
"31.40000","2.56308","3561.76"
"31.60000","2.58001","3577.16"
"31.80000","2.59695","3593.14"
"32.00000","2.61378","3477.97"
"32.20000","2.63001","3491.43"
"32.40000","2.64674","3507.18"
"32.60000","2.66398","3524.45"
"32.80000","2.67980","3540.26"
"33.00000","2.69694","3556.87"
"33.20000","2.71367","3572.13"
"33.40000","2.72989","3587.37"
"33.60000","2.74643","3602"
"33.80000","2.76356","3614.94"
"34.00000","2.77979","3627.95"
"34.20000","2.79652","3642.87"
"34.40000","2.81345","3657.32"
"34.60000","2.83029","3670.83"
"34.80000","2.84661","3683.43"
"35.00000","2.86335","3695.74"
"35.20000","2.88068","3708.63"
"35.40000","2.89701","3721.59"
"35.60000","2.91304","3734.18"
"35.80000","2.93068","3746.42"
"36.00000","2.94680","3758.29"
"36.20000","2.96323","3768.55"
"36.40000","2.97986","3779.94"
"36.60000","2.99670","3791.54"
"36.80000","3.01343","3801.67"
"37.00000","3.02996","3811.81"
"37.20000","3.04669","3822.27"
"37.40000","3.06372","3832.82"
"37.60000","3.07985","3842.33"
"37.80000","3.09688","3850.89"
"38.00000","3.11352","3859.33"
"38.20000","3.12994","3866.39"
"38.40000","3.14668","3874.52"
"38.60000","3.16381","3883.62"
"38.80000","3.18014","3889.99"
"39.00000","3.19677","3896.99"
"39.20000","3.21370","3903.43"
"39.40000","3.23023","3907.67"
"39.60000","3.24646","3912.89"
"39.80000","3.26329","3917.48"
"40.00000","3.28043","3920.02"
"40.20000","3.29686","3918.53"
"40.40000","3.31319","3914.1"
"40.60000","3.33052","3908.52"
"40.80000","3.34705","3894.89"
"41.00000","3.36308","3865.06"
"41.20000","3.38022","3726.97"
"41.24600","3.38425","3104.18"
"41.25400","3.38515","2310.22"
"41.25600","3.38536","2103.72"

File: Sequence_18.csv
General : Start date,"10/22/2024 10:04 AM"
General : End date,"10/22/2024 10:05 AM"
Specimen notes : Specimen note 1,"purple, 200, batch 6, seq 18"
Test : Rate 1,"5.00000",mm/min

Time,Extension,Load
(s),(mm),(N)
"0.00000","0.00000","1.55190"
"0.20000","0.01330","19.68031"
"0.40000","0.03266","58.10201"
"0.60000","0.05030","89.65925"
"0.80000","0.06693","118.994"
"1.00000","0.08346","135.757"
"1.20000","0.10069","160.031"
"1.40000","0.11702","179.066"
"1.60000","0.13345","206.122"
"1.80000","0.15038","235.249"
"2.00000","0.16702","262.735"
"2.20000","0.18375","290.308"
"2.40000","0.19997","318.354"
"2.60000","0.21731","346.325"
"2.80000","0.23364","373.602"
"3.00000","0.25007","401.7"
"3.20000","0.26700","428.97"
"3.40000","0.28383","457.526"
"3.60000","0.29996","483.962"
"3.80000","0.31679","511.628"
"4.00000","0.33383","540.487"
"4.20000","0.35026","567.183"
"4.40000","0.36669","595.598"
"4.60000","0.38372","623.504"
"4.80000","0.40045","651.75"
"5.00000","0.41668","678.187"
"5.20000","0.43341","705.722"
"5.40000","0.45055","733.676"
"5.60000","0.46698","760.035"
"5.80000","0.48341","787.609"
"6.00000","0.50044","815.788"
"6.20000","0.51697","842.742"
"6.40000","0.53320","867.949"
"6.60000","0.55033","896.424"
"6.80000","0.56706","923.047"
"7.00000","0.58339","949.277"
"7.20000","0.60023","977.003"
"7.40000","0.61716","1003.17"
"7.60000","0.63349","1029.37"
"7.80000","0.65012","1055.5"
"8.00000","0.66725","1083.16"
"8.20000","0.68378","1110.08"
"8.40000","0.69981","1134.88"
"8.60000","0.71705","1161.36"
"8.80000","0.73348","1187.29"
"9.00000","0.75011","1213.33"
"9.20000","0.76654","1238.86"
"9.40000","0.78357","1264.96"
"9.60000","0.80020","1291.73"
"9.80000","0.81653","1317.64"
"10.00000","0.83387","1341.44"
"10.20000","0.85040","1367.86"
"10.40000","0.86683","1392.51"
"10.60000","0.88346","1417.56"
"10.80000","0.90069","1443.63"
"11.00000","0.91682","1469.28"
"11.20000","0.93345","1494.56"
"11.40000","0.95028","1519.78"
"11.60000","0.96722","1545.12"
"11.80000","0.98344","1570.45"
"12.00000","1.00018","1594.1"
"12.20000","1.01691","1618.41"
"12.40000","1.03324","1643.95"
"12.60000","1.05007","1666.51"
"12.80000","1.06710","1692.38"
"13.00000","1.08373","1717.79"
"13.20000","1.10016","1739.97"
"13.40000","1.11699","1765.68"
"13.60000","1.13383","1790.31"
"13.80000","1.15016","1814.86"
"14.00000","1.16689","1838.57"
"14.20000","1.18382","1863.26"
"14.40000","1.20045","1887.34"
"14.60000","1.21638","1909.94"
"14.80000","1.23371","1934.24"
"15.00000","1.25024","1957.65"
"15.20000","1.26708","1980.99"
"15.40000","1.28351","2003.73"
"15.60000","1.30034","2027.5"
"15.80000","1.31657","2048.84"
"16.00000","1.33310","2072.66"
"16.20000","1.35043","2096.48"
"16.40000","1.36706","2118.46"
"16.60000","1.38329","2138.44"
"16.80000","1.40043","2162.66"
"17.00000","1.41726","2184.98"
"17.20000","1.43339","2205.51"
"17.40000","1.45002","2228.56"
"17.60000","1.46735","2250.61"
"17.80000","1.48378","2271.85"
"18.00000","1.50001","2294.08"
"18.20000","1.51694","2316.14"
"18.40000","1.53388","2338.88"
"18.60000","1.55000","2360.29"
"18.80000","1.56704","2383.07"
"19.00000","1.58357","2403.83"
"19.20000","1.60020","2425"
"19.40000","1.61653","2445.52"
"19.60000","1.63386","2467.93"
"19.80000","1.65029","2489.25"
"20.00000","1.66672","2507.32"
"20.20000","1.68356","2529.87"
"20.40000","1.70049","2547.37"
"20.60000","1.71662","2566.71"
"20.80000","1.73335","2587.15"
"21.00000","1.75038","2608.8"
"21.20000","1.76701","2626.45"
"21.40000","1.78324","2646.84"
"21.60000","1.80058","2665.62"
"21.80000","1.81701","2685.06"
"22.00000","1.83334","2705.99"
"22.20000","1.85017","2725.82"
"22.40000","1.86700","2746.11"
"22.60000","1.88353","2766.01"
"22.80000","1.90006","2786.08"
"23.00000","1.91659","2802.6"
"23.20000","1.93393","2823.49"
"23.40000","1.94985","2842.23"
"23.60000","1.96719","2862.55"
"23.80000","1.98362","2881.74"
"24.00000","2.00035","2902.12"
"24.20000","2.01688","2920.21"
"24.40000","2.03391","2940.02"
"24.60000","2.05024","2957.95"
"24.80000","2.06677","2976.94"
"25.00000","2.08381","2995.31"
"25.20000","2.10034","3013.92"
"25.40000","2.11667","3029.67"
"25.60000","2.13340","3051.06"
"25.80000","2.15053","3069.71"
"26.00000","2.16686","3087.5"
"26.20000","2.18329","3105.47"
"26.40000","2.20073","3124.06"
"26.60000","2.21696","3143.16"
"26.80000","2.23328","3160.04"
"27.00000","2.25022","3177.24"
"27.20000","2.26705","3195.5"
"27.40000","2.28358","3210.71"
"27.60000","2.30021","3228.71"
"27.80000","2.31694","3244.86"
"28.00000","2.33398","3260.82"
"28.20000","2.34990","3278.36"
"28.40000","2.36704","3294.55"
"28.60000","2.38357","3310.26"
"28.80000","2.40010","3326.81"
"29.00000","2.41693","3342.29"
"29.20000","2.43356","3350.62"
"29.40000","2.45019","3366.41"
"29.60000","2.46703","3383.17"
"29.80000","2.48376","3398.4"
"30.00000","2.50039","3413.74"
"30.20000","2.51682","3427.48"
"30.40000","2.53345","3443.41"
"30.60000","2.55058","3452.66"
"30.80000","2.56661","3466.38"
"31.00000","2.58314","3481.77"
"31.20000","2.60058","3496.3"
"31.40000","2.61670","3509.9"
"31.60000","2.63313","3520.49"
"31.80000","2.65037","3535.77"
"32.00000","2.66730","3549.29"
"32.20000","2.68323","3561.54"
"32.40000","2.70016","3575.11"
"32.60000","2.71719","3589.57"
"32.80000","2.73383","3602.34"
"33.00000","2.74995","3542.24"
"33.20000","2.76719","3561.54"
"33.40000","2.78382","3579.15"
"33.60000","2.79985","3595.23"
"33.80000","2.81708","3610.42"
"34.00000","2.83351","3625.78"
"34.20000","2.84994","3642.46"
"34.40000","2.86677","3656.7"
"34.60000","2.88381","3671.81"
"34.80000","2.90024","3685.95"
"35.00000","2.91677","3698.52"
"35.20000","2.93390","3714.09"
"35.40000","2.95053","3727.9"
"35.60000","2.96666","3741.49"
"35.80000","2.98359","3754.45"
"36.00000","3.00083","3768.78"
"36.20000","3.01665","3781.17"
"36.40000","3.03328","3793.13"
"36.60000","3.05032","3805.48"
"36.80000","3.06695","3818.29"
"37.00000","3.08328","3828.46"
"37.20000","3.10031","3839.15"
"37.40000","3.11704","3849.03"
"37.60000","3.13357","3860.33"
"37.80000","3.15010","3869.59"
"38.00000","3.16684","3879.67"
"38.20000","3.18347","3889.62"
"38.40000","3.19990","3897.95"
"38.60000","3.21733","3907.83"
"38.80000","3.23356","3916.38"
"39.00000","3.25029","3924.87"
"39.20000","3.26682","3931.12"
"39.40000","3.28376","3938.99"
"39.60000","3.30008","3947.48"
"39.80000","3.31661","3953.52"
"40.00000","3.33365","3959.27"
"40.20000","3.35048","3962.29"
"40.40000","3.36661","3963.67"
"40.60000","3.38374","3966.88"
"40.80000","3.40068","3914.1"
"41.00000","3.41670","3907.18"
"41.20000","3.43333","3903.9"
"41.40000","3.45047","3902.97"
"41.60000","3.46700","3899.88"
"41.80000","3.48343","3895.88"
"42.00000","3.50006","3891.01"
"42.20000","3.51719","3882.65"
"42.40000","3.53332","3866.37"
"42.60000","3.55025","3832.08"
"42.80000","3.56709","3703.23"
"42.94800","3.57948","3304.31"
"42.95600","3.58029","2628.78"
"42.96200","3.58090","2028.37"

File: Sequence_19.csv
General : Start date,"10/22/2024 10:08 AM"
General : End date,"10/22/2024 10:08 AM"
Specimen notes : Specimen note 1,"blue, 200, batch 10, seq 19"
Test : Rate 1,"5.00000",mm/min

Time,Extension,Load
(s),(mm),(N)
"0.00000","0.00000","0.26232"
"0.20000","0.01078","12.20794"
"0.40000","0.03306","54.16726"
"0.60000","0.04959","82.27934"
"0.80000","0.06703","111.978"
"1.00000","0.08386","140.581"
"1.20000","0.10029","167.613"
"1.40000","0.11692","185.347"
"1.60000","0.13385","206.096"
"1.80000","0.14988","230.459"
"2.00000","0.16691","256.311"
"2.20000","0.18355","282.885"
"2.40000","0.20058","310.432"
"2.60000","0.21681","337.254"
"2.80000","0.23324","363.243"
"3.00000","0.25037","390.535"
"3.20000","0.26690","417.775"
"3.40000","0.28333","443.072"
"3.60000","0.30047","471.092"
"3.80000","0.31700","498.997"
"4.00000","0.33332","524.335"
"4.20000","0.35026","551.28"
"4.40000","0.36669","578.732"
"4.60000","0.38352","604.585"
"4.80000","0.39985","631.483"
"5.00000","0.41698","659.087"
"5.20000","0.43382","686.703"
"5.40000","0.44984","712.182"
"5.60000","0.46708","738.774"
"5.80000","0.48381","764.847"
"6.00000","0.49994","790.534"
"6.20000","0.51677","816.994"
"6.40000","0.53370","843.215"
"6.60000","0.55013","869.517"
"6.80000","0.56636","894.42"
"7.00000","0.58380","922.632"
"7.20000","0.60043","947.322"
"7.40000","0.61666","972.975"
"7.60000","0.63339","999.716"
"7.80000","0.65062","1025.07"
"8.00000","0.66655","1050.34"
"8.20000","0.68328","1075.96"
"8.40000","0.70021","1101.5"
"8.60000","0.71684","1126.84"
"8.80000","0.73297","1152.48"
"9.00000","0.75021","1178.07"
"9.20000","0.76714","1205.28"
"9.40000","0.78347","1229.28"
"9.60000","0.79990","1254.46"
"9.80000","0.81693","1280.44"
"10.00000","0.83366","1304.88"
"10.20000","0.84959","1328.88"
"10.40000","0.86713","1355.57"
"10.60000","0.88366","1380.74"
"10.80000","0.89999","1404.22"
"11.00000","0.91692","1428.7"
"11.20000","0.93365","1453.61"
"11.40000","0.94978","1477.87"
"11.60000","0.96661","1502.35"
"11.80000","0.98365","1526.57"
"12.00000","1.00028","1551.41"
"12.20000","1.01671","1574.5"
"12.40000","1.03364","1598.69"
"12.60000","1.05047","1622.35"
"12.80000","1.06640","1646.06"
"13.00000","1.08353","1670"
"13.20000","1.10046","1694.12"
"13.40000","1.11689","1716.97"
"13.60000","1.13342","1738.32"
"13.80000","1.15006","1762.09"
"14.00000","1.16699","1785.06"
"14.20000","1.18312","1807.22"
"14.40000","1.20005","1831.18"
"14.60000","1.21688","1854.19"
"14.80000","1.23351","1876.85"
"15.00000","1.24984","1898.81"
"15.20000","1.26728","1922.03"
"15.40000","1.28341","1945.19"
"15.60000","1.30014","1967.26"
"15.80000","1.31687","1989.84"
"16.00000","1.33380","2012.7"
"16.20000","1.35003","2035.53"
"16.40000","1.36666","2056.46"
"16.60000","1.38370","2079.22"
"16.80000","1.40043","2100.4"
"17.00000","1.41655","2122.72"
"17.20000","1.43359","2144.07"
"17.40000","1.45022","2165.34"
"17.60000","1.46645","2185.49"
"17.80000","1.48348","2208.3"
"18.00000","1.50041","2229.15"
"18.20000","1.51684","2250.63"
"18.40000","1.53347","2271.02"
"18.60000","1.55021","2291.83"
"18.80000","1.56724","2314.04"
"19.00000","1.58317","2333.53"
"19.20000","1.60050","2355.73"
"19.40000","1.61713","2376.12"
"19.60000","1.63336","2396.64"
"19.80000","1.64969","2416.93"
"20.00000","1.66713","2438.47"
"20.20000","1.68356","2455.15"
"20.40000","1.70009","2474.24"
"20.60000","1.71682","2495.51"
"20.80000","1.73365","2515.66"
"21.00000","1.74978","2530.8"
"21.20000","1.76671","2549.57"
"21.40000","1.78385","2569.25"
"21.60000","1.80017","2589.34"
"21.80000","1.81660","2603.98"
"22.00000","1.83374","2620.98"
"22.20000","1.85017","2642.07"
"22.40000","1.86660","2661.24"
"22.60000","1.88363","2681.89"
"22.80000","1.90067","2702.55"
"23.00000","1.91649","2720.7"
"23.20000","1.93342","2738.85"
"23.40000","1.95016","2756.95"
"23.60000","1.96729","2769.24"
"23.80000","1.98301","2783.96"
"24.00000","2.00045","2803.35"
"24.20000","2.01698","2789.27"
"24.40000","2.03321","2786.76"
"24.60000","2.05014","2807.47"
"24.80000","2.06708","2828.5"
"25.00000","2.08340","2847.95"
"25.20000","2.10004","2866.87"
"25.40000","2.11677","2887.38"
"25.60000","2.13350","2907.21"
"25.80000","2.14973","2923.89"
"26.00000","2.16696","2943.5"
"26.20000","2.18379","2960.53"
"26.40000","2.20012","2978.31"
"26.60000","2.21675","2996.37"
"26.80000","2.23389","3015.12"
"27.00000","2.25002","3032.68"
"27.20000","2.26685","3050.37"
"27.40000","2.28358","3067.34"
"27.60000","2.30031","3085.55"
"27.80000","2.31664","3101.81"
"28.00000","2.33337","3118.07"
"28.20000","2.35031","3136.73"
"28.40000","2.36704","3152.56"
"28.60000","2.38306","3168.17"
"28.80000","2.40040","3186.31"
"29.00000","2.41693","3201.7"
"29.20000","2.43326","3217.98"
"29.40000","2.45039","3233.56"
"29.60000","2.46703","3249.55"
"29.80000","2.48366","3264.54"
"30.00000","2.50009","3279.47"
"30.20000","2.51692","3294.17"
"30.40000","2.53355","3307.36"
"30.60000","2.54978","3322.16"
"30.80000","2.56691","3336.97"
"31.00000","2.58384","3352.43"
"31.20000","2.59997","3365.02"
"31.40000","2.61680","3378.95"
"31.60000","2.63394","3393.65"
"31.80000","2.64997","3406.13"
"32.00000","2.66660","3419.24"
"32.20000","2.68363","3433.64"
"32.40000","2.70056","3447.42"
"32.60000","2.71669","3459.47"
"32.80000","2.73362","3471.07"
"33.00000","2.75046","3473.18"
"33.20000","2.76679","3481.5"
"33.40000","2.78321","3492.13"
"33.60000","2.80035","3501.43"
"33.80000","2.81668","3511.41"
"34.00000","2.83311","3456.42"
"34.20000","2.85044","3474.3"
"34.40000","2.86667","3488.87"
"34.60000","2.88350","3503.34"
"34.80000","2.90034","3517.89"
"35.00000","2.91707","3530.46"
"35.20000","2.93340","3542.14"
"35.40000","2.94993","3554.49"
"35.60000","2.96706","3526.9"
"35.80000","2.98389","3541.1"
"36.00000","2.99972","3554.65"
"36.20000","3.01695","3568.9"
"36.40000","3.03359","3581.28"
"36.60000","3.04981","3593.35"
"36.80000","3.06665","3604.08"
"37.00000","3.08368","3617.01"
"37.20000","3.10021","3616.93"
"37.40000","3.11664","3622.21"
"37.60000","3.13337","3629.47"
"37.80000","3.15061","3639.06"
"38.00000","3.16663","3645.5"
"38.20000","3.18357","3604.02"
"38.40000","3.20030","3608"
"38.60000","3.21673","3616.26"
"38.80000","3.23316","3623.38"
"39.00000","3.25049","3634.48"
"39.20000","3.26642","3643.47"
"39.40000","3.28335","3654.86"
"39.60000","3.30018","3664.28"
"39.80000","3.31712","3674.74"
"40.00000","3.33335","3684.86"
"40.20000","3.35008","3693.6"
"40.40000","3.36731","3701.69"
"40.60000","3.38374","3709.76"
"40.80000","3.39977","3715.97"
"41.00000","3.41711","3725.23"
"41.20000","3.43364","3733.71"
"41.40000","3.44996","3738.52"
"41.60000","3.46670","3745.86"
"41.80000","3.48363","3753.81"
"42.00000","3.50006","3758.3"
"42.20000","3.51659","3761.98"
"42.40000","3.53342","3770.62"
"42.60000","3.55056","3774.52"
"42.80000","3.56648","3777.86"
"43.00000","3.58362","3780.7"
"43.20000","3.60015","3784.14"
"43.40000","3.61678","3786.16"
"43.60000","3.63331","3784.69"
"43.80000","3.65054","3785.31"
"44.00000","3.66687","3782.28"
"44.20000","3.68350","3776.5"
"44.40000","3.70024","3770.11"
"44.60000","3.71717","3759.84"
"44.80000","3.73299","3743.24"
"45.00000","3.75013","3723.09"
"45.20000","3.76706","3686.78"
"45.40000","3.78379","3562.68"
"45.45800","3.78843","3008.56"
"45.46600","3.78924","2312.29"
"45.46800","3.78944","2119.05"