Folder: 3D-Filament-Dyes/Data_Processing/Tensile-Data (part 9)

File: Sequence_26.csv
General : Start date,"10/29/2024 10:10 AM"
General : End date,"10/29/2024 10:11 AM"
Specimen notes : Specimen note 1,"Day 2, purple, 230, batch 1, seq 26"
Test : Rate 1,"5.00000",mm/min

Time,Extension,Load
(s),(mm),(N)
"0.00000","0.00000","0.61863"
"0.20000","0.01038","11.16957"
"0.40000","0.03185","54.43659"
"0.60000","0.04989","84.87653"
"0.80000","0.06703","112.583"
"1.00000","0.08326","138.335"
"1.20000","0.10049","167.483"
"1.40000","0.11702","195.48"
"1.60000","0.13345","223.249"
"1.80000","0.15028","251.154"
"2.00000","0.16691","279.658"
"2.20000","0.18344","306.244"
"2.40000","0.19997","332.959"
"2.60000","0.21691","360.99"
"2.80000","0.23364","388.511"
"3.00000","0.24987","414.652"
"3.20000","0.26670","441.331"
"3.40000","0.28394","467.594"
"3.60000","0.29996","492.891"
"3.80000","0.31679","518.707"
"4.00000","0.33393","545.03"
"4.20000","0.35026","569.323"
"4.40000","0.36669","594.085"
"4.60000","0.38362","620.562"
"4.80000","0.40035","644.709"
"5.00000","0.41678","669.206"
"5.20000","0.43351","693.798"
"5.40000","0.45035","717.877"
"5.60000","0.46678","740.417"
"5.80000","0.48310","764.272"
"6.00000","0.50044","788.835"
"6.20000","0.51717","812.486"
"6.40000","0.53340","834.682"
"6.60000","0.55033","858.017"
"6.80000","0.56696","881.101"
"7.00000","0.58339","903.451"
"7.20000","0.60002","924.458"
"7.40000","0.61706","947.486"
"7.60000","0.63369","968.898"
"7.80000","0.65002","991.399"
"8.00000","0.66685","1013.15"
"8.20000","0.68368","1033.23"
"8.40000","0.69991","1052.69"
"8.60000","0.71674","1073.19"
"8.80000","0.73358","1093.01"
"9.00000","0.75021","1111.84"
"9.20000","0.76684","1130.01"
"9.40000","0.78337","1150"
"9.60000","0.80040","1168.72"
"9.80000","0.81673","1187.04"
"10.00000","0.83356","1206.4"
"10.20000","0.85019","1226.46"
"10.40000","0.86703","1245.24"
"10.60000","0.88325","1263.49"
"10.80000","0.90059","1283.94"
"11.00000","0.91692","1301.85"
"11.20000","0.93325","1319.2"
"11.40000","0.95028","1337.41"
"11.60000","0.96701","1356"
"11.80000","0.98324","1373.34"
"12.00000","0.99977","1391.79"
"12.20000","1.01711","1411.46"
"12.40000","1.03364","1429.31"
"12.60000","1.04977","1447.28"
"12.80000","1.06700","1467.17"
"13.00000","1.08373","1484.1"
"13.20000","1.09996","1501.6"
"13.40000","1.11689","1520.14"
"13.60000","1.13393","1539.65"
"13.80000","1.15016","1557"
"14.00000","1.16679","1574.87"
"14.20000","1.18291","1593.21"
"14.40000","1.19995","1609.89"
"14.60000","1.21638","1627.63"
"14.80000","1.23361","1645.19"
"15.00000","1.25034","1661.62"
"15.20000","1.26667","1678.25"
"15.40000","1.28341","1695.1"
"15.60000","1.30044","1712.31"
"15.80000","1.31677","1728.18"
"16.00000","1.33360","1745.71"
"16.20000","1.35043","1761.9"
"16.40000","1.36706","1778.69"
"16.60000","1.38339","1794.42"
"16.80000","1.40002","1812.13"
"17.00000","1.41716","1828.32"
"17.20000","1.43349","1844.6"
"17.40000","1.45002","1861.14"
"17.60000","1.46715","1877.62"
"17.80000","1.48338","1894.04"
"18.00000","1.49991","1910.13"
"18.20000","1.51705","1926.7"
"18.40000","1.53378","1943.58"
"18.60000","1.54980","1958.97"
"18.80000","1.56694","1975.26"
"19.00000","1.58367","1992.1"
"19.20000","1.60030","2007.95"
"19.40000","1.61663","2024.57"
"19.60000","1.63376","2040.58"
"19.80000","1.65029","2056.5"
"20.00000","1.66652","2072.63"
"20.20000","1.68356","2088.02"
"20.40000","1.70029","2105.22"
"20.60000","1.71662","2119.69"
"20.80000","1.73335","2136.61"
"21.00000","1.75028","2152.99"
"21.20000","1.76691","2169.27"
"21.40000","1.78334","2184.66"
"21.60000","1.80058","2202.03"
"21.80000","1.81721","2217.88"
"22.00000","1.83344","2233.34"
"22.20000","1.84997","2249.02"
"22.40000","1.86720","2265.5"
"22.60000","1.88343","2282.17"
"22.80000","1.89996","2297.97"
"23.00000","1.91689","2314.65"
"23.20000","1.93363","2330.36"
"23.40000","1.94995","2345.18"
"23.60000","1.96689","2361.39"
"23.80000","1.98372","2376.49"
"24.00000","2.00035","2392.59"
"24.20000","2.01648","2408.09"
"24.40000","2.03371","2424.59"
"24.60000","2.05034","2440.65"
"24.80000","2.06667","2456.73"
"25.00000","2.08381","2472.57"
"25.20000","2.10014","2488.24"
"25.40000","2.11667","2503.75"
"25.60000","2.13330","2519.39"
"25.80000","2.15043","2535.39"
"26.00000","2.16666","2550.03"
"26.20000","2.18329","2565.88"
"26.40000","2.20022","2582.22"
"26.60000","2.21716","2598.54"
"26.80000","2.23328","2613.62"
"27.00000","2.25022","2630.26"
"27.20000","2.26725","2646.28"
"27.40000","2.28328","2659.87"
"27.60000","2.29991","2675.54"
"27.80000","2.31704","2692.2"
"28.00000","2.33357","2707.96"
"28.20000","2.35000","2723.15"
"28.40000","2.36663","2738.92"
"28.60000","2.38377","2756.33"
"28.80000","2.40000","2770.45"
"29.00000","2.41673","2786.6"
"29.20000","2.43376","2800.8"
"29.40000","2.45019","2816.32"
"29.60000","2.46642","2831.61"
"29.80000","2.48376","2846.96"
"30.00000","2.49998","2862.42"
"30.20000","2.51672","2877.04"
"30.40000","2.53365","2892.05"
"30.60000","2.55038","2908.18"
"30.80000","2.56661","2921.94"
"31.00000","2.58324","2935.94"
"31.20000","2.60048","2951.72"
"31.40000","2.61691","2965.42"
"31.60000","2.63293","2979.7"
"31.80000","2.65027","2995.75"
"32.00000","2.66700","3011.77"
"32.20000","2.68363","3026.57"
"32.40000","2.70026","3041.13"
"32.60000","2.71719","3056.56"
"32.80000","2.73383","3072.44"
"33.00000","2.74995","3085.05"
"33.20000","2.76679","3100.28"
"33.40000","2.78382","3114.66"
"33.60000","2.79985","3127.91"
"33.80000","2.81678","3143.36"
"34.00000","2.83361","3156.68"
"34.20000","2.85004","3171.69"
"34.40000","2.86677","3186.27"
"34.60000","2.88371","3201.31"
"34.80000","2.90034","3215.22"
"35.00000","2.91687","3229.27"
"35.20000","2.93380","3242.64"
"35.40000","2.95043","3258.35"
"35.60000","2.96676","3272.1"
"35.80000","2.98339","3285.78"
"36.00000","3.00053","3300.22"
"36.20000","3.01695","3314.88"
"36.40000","3.03318","3327.81"
"36.60000","3.05022","3342.92"
"36.80000","3.06685","3356.09"
"37.00000","3.08318","3369.9"
"37.20000","3.10021","3383.89"
"37.40000","3.11694","3397.72"
"37.60000","3.13367","3412.28"
"37.80000","3.15000","3424.9"
"38.00000","3.16694","3439.9"
"38.20000","3.18417","3453.91"
"38.40000","3.19990","3467.28"
"38.60000","3.21703","3480.74"
"38.80000","3.23386","3495.11"
"39.00000","3.24999","3508.45"
"39.20000","3.26662","3522.85"
"39.40000","3.28386","3535.3"
"39.60000","3.29998","3549.3"
"39.80000","3.31651","3562.76"
"40.00000","3.33355","3576.23"
"40.20000","3.35028","3589.87"
"40.40000","3.36651","3602.03"
"40.60000","3.38324","3616.39"
"40.80000","3.40058","3631.02"
"41.00000","3.41690","3643"
"41.20000","3.43333","3655.88"
"41.40000","3.45057","3668.92"
"41.60000","3.46670","3681.82"
"41.80000","3.48323","3693.11"
"42.00000","3.50036","3707.04"
"42.20000","3.51699","3719.57"
"42.40000","3.53322","3731.6"
"42.60000","3.55015","3744.32"
"42.80000","3.56689","3757.23"
"43.00000","3.58372","3769.34"
"43.20000","3.59995","3779.79"
"43.40000","3.61728","3793.14"
"43.60000","3.63371","3804.11"
"43.80000","3.65014","3816.12"
"44.00000","3.66697","3828.31"
"44.20000","3.68370","3839.66"
"44.40000","3.70003","3851.09"
"44.60000","3.71677","3861.94"
"44.80000","3.73360","3873.44"
"45.00000","3.75023","3884.74"
"45.20000","3.76666","3894.61"
"45.40000","3.78349","3905.31"
"45.60000","3.80042","3915.67"
"45.80000","3.81655","3923.98"
"46.00000","3.83359","3934.55"
"46.20000","3.85062","3944.56"
"46.40000","3.86675","3952.95"
"46.60000","3.88348","3961.67"
"46.80000","3.90041","3969.87"
"47.00000","3.91704","3976.62"
"47.20000","3.93337","3983.72"
"47.40000","3.95000","3989.97"
"47.60000","3.96683","3996.47"
"47.80000","3.98346","4001.68"
"48.00000","3.99999","4005.49"
"48.20000","4.01703","4010.81"
"48.40000","4.03366","4014.06"
"48.60000","4.04989","4015.51"
"48.80000","4.06712","4017.52"
"49.00000","4.08376","4016.76"
"49.20000","4.10018","4014.13"
"49.40000","4.11702","4010.7"
"49.60000","4.13375","4003.36"
"49.80000","4.15018","3991.72"
"50.00000","4.16661","3973.76"
"50.20000","4.18364","3941.69"
"50.40000","4.20037","3863.92"
"50.47000","4.20622","3250.93"
"50.47800","4.20703","2423.95"
"50.48000","4.20733","2206.55"

File: Sequence_27.csv
General : Start date,"10/29/2024 10:12 AM"
General : End date,"10/29/2024 10:13 AM"
Specimen notes : Specimen note 1,"Day 2, red, 215, batch 8, seq 27"
Test : Rate 1,"5.00000",mm/min

Time,Extension,Load
(s),(mm),(N)
"0.00000","0.00000","0.94058"
"0.20000","0.00947","10.27863"
"0.40000","0.03235","57.84563"
"0.60000","0.04979","88.92570"
"0.80000","0.06622","118.03"
"1.00000","0.08326","146.359"
"1.20000","0.10059","175.434"
"1.40000","0.11692","202.404"
"1.60000","0.13335","231.36"
"1.80000","0.15059","261.71"
"2.00000","0.16722","290.808"
"2.20000","0.18334","318.82"
"2.40000","0.20028","347.316"
"2.60000","0.21701","376.319"
"2.80000","0.23344","403.884"
"3.00000","0.24997","432.23"
"3.20000","0.26690","459.968"
"3.40000","0.28373","486.837"
"3.60000","0.29956","514.141"
"3.80000","0.31710","543.446"
"4.00000","0.33353","570.709"
"4.20000","0.35006","598.622"
"4.40000","0.36709","625.754"
"4.60000","0.38392","653.91"
"4.80000","0.40025","680.42"
"5.00000","0.41688","706.067"
"5.20000","0.43382","734.087"
"5.40000","0.45045","760.489"
"5.60000","0.46667","786.498"
"5.80000","0.48361","813.874"
"6.00000","0.50044","840.24"
"6.20000","0.51647","865.611"
"6.40000","0.53330","892.34"
"6.60000","0.55043","920.036"
"6.80000","0.56696","945.885"
"7.00000","0.58319","969.538"
"7.20000","0.60023","996.088"
"7.40000","0.61726","1023.74"
"7.60000","0.63349","1048.62"
"7.80000","0.65022","1075.01"
"8.00000","0.66715","1099.58"
"8.20000","0.68368","1126.09"
"8.40000","0.69991","1150.45"
"8.60000","0.71705","1176.35"
"8.80000","0.73348","1202.06"
"9.00000","0.74970","1225.88"
"9.20000","0.76684","1250.67"
"9.40000","0.78347","1276.16"
"9.60000","0.80000","1299.59"
"9.80000","0.81683","1324.14"
"10.00000","0.83376","1349.55"
"10.20000","0.85050","1373"
"10.40000","0.86662","1396.72"
"10.60000","0.88376","1420.19"
"10.80000","0.90049","1444.22"
"11.00000","0.91672","1466.53"
"11.20000","0.93335","1490.56"
"11.40000","0.95038","1513.92"
"11.60000","0.96681","1536.47"
"11.80000","0.98344","1558.54"
"12.00000","0.99997","1583.17"
"12.20000","1.01721","1606.5"
"12.40000","1.03313","1628.61"
"12.60000","1.05037","1651.82"
"12.80000","1.06700","1674.81"
"13.00000","1.08353","1697.09"
"13.20000","1.10006","1718.04"
"13.40000","1.11740","1741.51"
"13.60000","1.13353","1762.3"
"13.80000","1.15006","1784.84"
"14.00000","1.16699","1807.92"
"14.20000","1.18372","1830.42"
"14.40000","1.19985","1852.12"
"14.60000","1.21668","1873.49"
"14.80000","1.23392","1896.15"
"15.00000","1.25045","1916.43"
"15.20000","1.26647","1937.46"
"15.40000","1.28381","1959.28"
"15.60000","1.30044","1979.6"
"15.80000","1.31657","2000.03"
"16.00000","1.33360","2020.49"
"16.20000","1.35063","2041.31"
"16.40000","1.36686","2062.33"
"16.60000","1.38349","2082.72"
"16.80000","1.40033","2102.32"
"17.00000","1.41716","2121.88"
"17.20000","1.43318","2141.06"
"17.40000","1.45032","2161.45"
"17.60000","1.46715","2180.31"
"17.80000","1.48318","2199.58"
"18.00000","1.50021","2219.56"
"18.20000","1.51715","2237.88"
"18.40000","1.53368","2255.58"
"18.60000","1.55011","2273.96"
"18.80000","1.56724","2293.25"
"19.00000","1.58377","2310.52"
"19.20000","1.59990","2327.52"
"19.40000","1.61673","2345.62"
"19.60000","1.63366","2363.74"
"19.80000","1.64999","2381.47"
"20.00000","1.66662","2399.84"
"20.20000","1.68366","2418.07"
"20.40000","1.70019","2435.93"
"20.60000","1.71662","2453.44"
"20.80000","1.73365","2472"
"21.00000","1.75068","2489.95"
"21.20000","1.76681","2506.97"
"21.40000","1.78364","2525.91"
"21.60000","1.80017","2543.01"
"21.80000","1.81711","2560.05"
"22.00000","1.83313","2577.01"
"22.20000","1.85047","2594.74"
"22.40000","1.86700","2612.56"
"22.60000","1.88313","2628.31"
"22.80000","1.90026","2647"
"23.00000","1.91699","2664.92"
"23.20000","1.93373","2682.43"
"23.40000","1.95026","2699.21"
"23.60000","1.96699","2716.73"
"23.80000","1.98362","2734.7"
"24.00000","2.00015","2750.51"
"24.20000","2.01698","2767.78"
"24.40000","2.03381","2785.18"
"24.60000","2.05004","2802.83"
"24.80000","2.06677","2820.19"
"25.00000","2.08381","2837.12"
"25.20000","2.10014","2854.58"
"25.40000","2.11667","2870.06"
"25.60000","2.13350","2887.24"
"25.80000","2.15033","2904.74"
"26.00000","2.16676","2921.12"
"26.20000","2.18349","2938.53"
"26.40000","2.20053","2954.62"
"26.60000","2.21706","2970.66"
"26.80000","2.23339","2987.02"
"27.00000","2.25052","3003.73"
"27.20000","2.26705","3019.74"
"27.40000","2.28328","3035.06"
"27.60000","2.30051","3051.46"
"27.80000","2.31684","3068.42"
"28.00000","2.33337","3083.5"
"28.20000","2.34990","3099.32"
"28.40000","2.36694","3116.57"
"28.60000","2.38347","3132.51"
"28.80000","2.40000","3147.63"
"29.00000","2.41703","3163.76"
"29.20000","2.43376","3179.48"
"29.40000","2.44979","3194.09"
"29.60000","2.46703","3210.31"
"29.80000","2.48386","3226.54"
"30.00000","2.49998","3241.95"
"30.20000","2.51682","3257.39"
"30.40000","2.53385","3274.01"
"30.60000","2.55038","3289.37"
"30.80000","2.56641","3304.19"
"31.00000","2.58344","3320.51"
"31.20000","2.60007","3335.52"
"31.40000","2.61650","3350.54"
"31.60000","2.63354","3365.53"
"31.80000","2.65047","3381.1"
"32.00000","2.66710","3395.8"
"32.20000","2.68343","3410.42"
"32.40000","2.70077","3427.13"
"32.60000","2.71669","3441.39"
"32.80000","2.73352","3456.39"
"33.00000","2.75036","3472.14"
"33.20000","2.76709","3486.81"
"33.40000","2.78342","3501.56"
"33.60000","2.79995","3516.59"
"33.80000","2.81708","3532.78"
"34.00000","2.83381","3546.66"
"34.20000","2.84984","3561.28"
"34.40000","2.86697","3576.68"
"34.60000","2.88381","3590.34"
"34.80000","2.89993","3604.76"
"35.00000","2.91687","3619.45"
"35.20000","2.93380","3634.06"
"35.40000","2.95033","3647.98"
"35.60000","2.96676","3662.35"
"35.80000","2.98329","3676.89"
"36.00000","3.00053","3691.97"
"36.20000","3.01655","3705.94"
"36.40000","3.03359","3720.45"
"36.60000","3.05022","3735.4"
"36.80000","3.06695","3749.89"
"37.00000","3.08338","3763.59"
"37.20000","3.10061","3776.85"
"37.40000","3.11684","3791.74"
"37.60000","3.13347","3805.18"
"37.80000","3.15041","3819.61"
"38.00000","3.16704","3832.96"
"38.20000","3.18337","3845.51"
"38.40000","3.20020","3861.08"
"38.60000","3.21733","3874.66"
"38.80000","3.23366","3887.25"
"39.00000","3.24989","3900.85"
"39.20000","3.26692","3915.09"
"39.40000","3.28376","3928.31"
"39.60000","3.29998","3941.56"
"39.80000","3.31682","3954.35"
"40.00000","3.33375","3967.46"
"40.20000","3.35018","3980.49"
"40.40000","3.36671","3991.36"
"40.60000","3.38364","4004.2"
"40.80000","3.40058","4016.2"
"41.00000","3.41650","4027.65"
"41.20000","3.43374","4040.85"
"41.40000","3.45027","4051.92"
"41.60000","3.46680","4063.94"
"41.80000","3.48343","4075.85"
"42.00000","3.50056","4087.32"
"42.20000","3.51669","4098.13"
"42.40000","3.53322","4108.85"
"42.60000","3.55046","4120.03"
"42.80000","3.56709","4130.92"
"43.00000","3.58342","4141.73"
"43.20000","3.60015","4151.53"
"43.40000","3.61728","4161.79"
"43.60000","3.63361","4170.35"
"43.80000","3.65004","4179.01"
"44.00000","3.66748","4187.93"
"44.20000","3.68350","4195.24"
"44.40000","3.69993","4201.54"
"44.60000","3.71697","4210.13"
"44.80000","3.73380","4216.44"
"45.00000","3.74993","4220.22"
"45.20000","3.76686","4226.1"
"45.40000","3.78359","4230.19"
"45.60000","3.80042","4233.77"
"45.80000","3.81655","4234.16"
"46.00000","3.83389","4236.31"
"46.20000","3.85042","4235.83"
"46.40000","3.86685","4233.79"
"46.60000","3.88348","4228.43"
"46.80000","3.90021","4223.51"
"47.00000","3.91674","4214.35"
"47.20000","3.93337","4202.02"
"47.40000","3.95030","4188.29"
"47.60000","3.96693","4170.26"
"47.80000","3.98336","4143.55"
"48.00000","4.00030","4105.32"
"48.20000","4.01733","4006.21"
"48.23000","4.01995","3320.8"
"48.23800","4.02076","2439.28"
"48.24000","4.02096","2213.91"

File: Sequence_28.csv
General : Start date,"10/29/2024 10:15 AM"
General : End date,"10/29/2024 10:15 AM"
Specimen notes : Specimen note 1,"Day 2, black, 215, batch 10, seq 28"
Test : Rate 1,"5.00000",mm/min

Time,Extension,Load
(s),(mm),(N)
"0.00000","0.00000","-0.53598"
"0.20000","0.00947","9.36620"
"0.40000","0.03256","54.78948"
"0.60000","0.04929","86.16260"
"0.80000","0.06632","115.466"
"1.00000","0.08376","143.656"
"1.20000","0.10029","171.43"
"1.40000","0.11642","198.649"
"1.60000","0.13355","227.111"
"1.80000","0.15028","254.504"
"2.00000","0.16681","283.862"
"2.20000","0.18355","312.137"
"2.40000","0.20058","342.365"
"2.60000","0.21701","370.188"
"2.80000","0.23334","396.313"
"3.00000","0.25017","424.439"
"3.20000","0.26700","452.573"
"3.40000","0.28323","478.165"
"3.60000","0.30016","505.769"
"3.80000","0.31690","534.456"
"4.00000","0.33322","560.365"
"4.20000","0.34985","587.006"
"4.40000","0.36699","615.229"
"4.60000","0.38332","641.472"
"4.80000","0.40025","669.211"
"5.00000","0.41708","694.765"
"5.20000","0.43392","722.838"
"5.40000","0.45014","747.115"
"5.60000","0.46667","773.182"
"5.80000","0.48381","801.294"
"6.00000","0.50024","826.725"
"6.20000","0.51657","852.391"
"6.40000","0.53350","879.649"
"6.60000","0.55033","904.792"
"6.80000","0.56636","929.733"
"7.00000","0.58339","954.249"
"7.20000","0.60013","980.844"
"7.40000","0.61676","1006.12"
"7.60000","0.63329","1030.9"
"7.80000","0.65022","1057.87"
"8.00000","0.66715","1082.74"
"8.20000","0.68328","1106.98"
"8.40000","0.70031","1131.86"
"8.60000","0.71705","1155.13"
"8.80000","0.73337","1180.12"
"9.00000","0.75001","1204.66"
"9.20000","0.76704","1229.25"
"9.40000","0.78337","1254.08"
"9.60000","0.79950","1276.83"
"9.80000","0.81693","1302.61"
"10.00000","0.83346","1325.39"
"10.20000","0.84989","1348.81"
"10.40000","0.86672","1373.27"
"10.60000","0.88396","1397.02"
"10.80000","0.90029","1418.95"
"11.00000","0.91642","1441.56"
"11.20000","0.93375","1466.21"
"11.40000","0.95028","1488.46"
"11.60000","0.96651","1510.3"
"11.80000","0.98354","1533.22"
"12.00000","1.00038","1555.5"
"12.20000","1.01640","1577.34"
"12.40000","1.03354","1600.72"
"12.60000","1.05027","1623.1"
"12.80000","1.06710","1644.69"
"13.00000","1.08313","1664.46"
"13.20000","1.10026","1685.25"
"13.40000","1.11689","1706.25"
"13.60000","1.13332","1727.09"
"13.80000","1.15016","1746.17"
"14.00000","1.16709","1766.3"
"14.20000","1.18352","1786.39"
"14.40000","1.19995","1807.14"
"14.60000","1.21698","1827.98"
"14.80000","1.23341","1848.48"
"15.00000","1.24994","1868.99"
"15.20000","1.26677","1889.34"
"15.40000","1.28371","1909"
"15.60000","1.29983","1928.38"
"15.80000","1.31667","1948.36"
"16.00000","1.33380","1968.72"
"16.20000","1.35023","1987.68"
"16.40000","1.36666","2006.43"
"16.60000","1.38349","2027.07"
"16.80000","1.40053","2047.16"
"17.00000","1.41676","2065.69"
"17.20000","1.43339","2085.74"
"17.40000","1.45032","2105.29"
"17.60000","1.46675","2124.88"
"17.80000","1.48308","2143.91"
"18.00000","1.50021","2164.06"
"18.20000","1.51705","2183.93"
"18.40000","1.53317","2201.95"
"18.60000","1.55041","2221.74"
"18.80000","1.56684","2240.53"
"19.00000","1.58347","2259.16"
"19.20000","1.60010","2277.54"
"19.40000","1.61703","2298.26"
"19.60000","1.63346","2315.94"
"19.80000","1.64979","2332.93"
"20.00000","1.66682","2352.19"
"20.20000","1.68376","2370.15"
"20.40000","1.69978","2387.65"
"20.60000","1.71652","2406.52"
"20.80000","1.73375","2424.27"
"21.00000","1.74998","2442.19"
"21.20000","1.76661","2460.62"
"21.40000","1.78374","2478.41"
"21.60000","1.80058","2496.46"
"21.80000","1.81650","2512.73"
"22.00000","1.83354","2530.79"
"22.20000","1.85047","2547.53"
"22.40000","1.86670","2564.83"
"22.60000","1.88313","2582.22"
"22.80000","1.90016","2599.04"
"23.00000","1.91699","2616.2"
"23.20000","1.93292","2632.72"
"23.40000","1.95056","2650.71"
"23.60000","1.96679","2667.92"
"23.80000","1.98342","2685.35"
"24.00000","2.00005","2701.25"
"24.20000","2.01698","2717.49"
"24.40000","2.03341","2734.63"
"24.60000","2.05004","2751.65"
"24.80000","2.06697","2768.07"
"25.00000","2.08361","2785.77"
"25.20000","2.09973","2800.89"
"25.40000","2.11697","2818.01"
"25.60000","2.13360","2834.31"
"25.80000","2.14993","2850.44"
"26.00000","2.16666","2867.36"
"26.20000","2.18339","2884.27"
"26.40000","2.20012","2900.82"
"26.60000","2.21655","2917.96"
"26.80000","2.23349","2934.13"
"27.00000","2.25062","2950.66"
"27.20000","2.26665","2965.41"
"27.40000","2.28358","2981.68"
"27.60000","2.30041","2997.3"
"27.80000","2.31684","3014.77"
"28.00000","2.33337","3030.82"
"28.20000","2.35051","3047.95"
"28.40000","2.36663","3063.72"
"28.60000","2.38316","3080.3"
"28.80000","2.40010","3095.43"
"29.00000","2.41673","3111.36"
"29.20000","2.43326","3127.16"
"29.40000","2.45009","3143.55"
"29.60000","2.46713","3159.9"
"29.80000","2.48345","3174.78"
"30.00000","2.49968","3190.48"
"30.20000","2.51712","3208.1"
"30.40000","2.53365","3222.72"
"30.60000","2.54998","3238.62"
"30.80000","2.56681","3254.06"
"31.00000","2.58354","3269.96"
"31.20000","2.60017","3285.06"
"31.40000","2.61660","3299.81"
"31.60000","2.63313","3316.16"
"31.80000","2.65027","3332.11"
"32.00000","2.66639","3347.13"
"32.20000","2.68363","3362.77"
"32.40000","2.70036","3377.88"
"32.60000","2.71689","3392.44"
"32.80000","2.73332","3407.28"
"33.00000","2.75036","3422.75"
"33.20000","2.76689","3438.22"
"33.40000","2.78342","3452.95"
"33.60000","2.80025","3469.3"
"33.80000","2.81708","3484.06"
"34.00000","2.83321","3498.7"
"34.20000","2.84984","3513.56"
"34.40000","2.86718","3528.96"
"34.60000","2.88350","3543.36"
"34.80000","2.89973","3558.04"
"35.00000","2.91717","3573.37"
"35.20000","2.93350","3587.67"
"35.40000","2.95003","3601.1"
"35.60000","2.96696","3615.82"
"35.80000","2.98359","3629.75"
"36.00000","3.00002","3643.91"
"36.20000","3.01665","3658.09"
"36.40000","3.03359","3673.72"
"36.60000","3.05052","3688.44"
"36.80000","3.06634","3701.39"
"37.00000","3.08368","3716.2"
"37.20000","3.10031","3729.53"
"37.40000","3.11644","3743.29"
"37.60000","3.13367","3757.44"
"37.80000","3.15041","3770.94"
"38.00000","3.16684","3784.32"
"38.20000","3.18337","3797.23"
"38.40000","3.20030","3810.83"
"38.60000","3.21693","3824.79"
"38.80000","3.23316","3837.99"
"39.00000","3.25039","3851.48"
"39.20000","3.26723","3864.82"
"39.40000","3.28335","3827.41"
"39.60000","3.29998","3832.59"
"39.80000","3.31732","3850.98"
"40.00000","3.33345","3867.66"
"40.20000","3.35008","3881.93"
"40.40000","3.36701","3893.75"
"40.60000","3.38364","3910.02"
"40.80000","3.39987","3924.11"
"41.00000","3.41660","3939.02"
"41.20000","3.43384","3952.8"
"41.40000","3.45027","3964.44"
"41.60000","3.46649","3977.71"
"41.80000","3.48353","3991.17"
"42.00000","3.50006","4003.93"
"42.20000","3.51649","4015.42"
"42.40000","3.53372","4027.77"
"42.60000","3.55015","4040.18"
"42.80000","3.56678","4050.89"
"43.00000","3.58342","4061.65"
"43.20000","3.60035","4073.79"
"43.40000","3.61688","4083.43"
"43.60000","3.63341","4093.46"
"43.80000","3.65024","4104.39"
"44.00000","3.66717","4114.04"
"44.20000","3.68330","4122.66"
"44.40000","3.70003","4130.38"
"44.60000","3.71717","4138.52"
"44.80000","3.73319","4144.32"
"45.00000","3.74983","4150.97"
"45.20000","3.76696","4156.83"
"45.40000","3.78369","4162.03"
"45.60000","3.79992","4165.18"
"45.80000","3.81655","4167.89"
"46.00000","3.83379","4169.52"
"46.20000","3.85012","4168.46"
"46.40000","3.86644","4166.38"
"46.60000","3.88368","4164.3"
"46.80000","3.90031","4158.37"
"47.00000","3.91654","4150.62"
"47.20000","3.93357","4140.06"
"47.40000","3.95000","4125.96"
"47.60000","3.96653","4108.76"
"47.80000","3.98336","4085.29"
"48.00000","4.00020","4053.97"
"48.20000","4.01693","4001.96"
"48.39400","4.03285","3610.87"
"48.40200","4.03366","2858.08"
"48.40800","4.03437","2196.41"