Folder: 3D-Filament-Dyes/Data_Processing/Tensile-Data (part 7)

File: Sequence_20.csv
General : Start date,"10/22/2024 10:11 AM"
General : End date,"10/22/2024 10:11 AM"
Specimen notes : Specimen note 1,"black, 200, batch 8, seq 20"
Test : Rate 1,"5.00000",mm/min

Time,Extension,Load
(s),(mm),(N)
"0.00000","0.00000","0.07683"
"0.20000","0.00847","7.90345"
"0.40000","0.03225","54.40251"
"0.60000","0.04949","82.91184"
"0.80000","0.06662","111.268"
"1.00000","0.08356","126.905"
"1.20000","0.10029","147.151"
"1.40000","0.11682","162.362"
"1.60000","0.13345","186.106"
"1.80000","0.15038","211.425"
"2.00000","0.16681","236.107"
"2.20000","0.18365","263.27"
"2.40000","0.20048","290.16"
"2.60000","0.21671","316.522"
"2.80000","0.23334","343.109"
"3.00000","0.25027","369.732"
"3.20000","0.26670","397.378"
"3.40000","0.28343","424.655"
"3.60000","0.30037","451.128"
"3.80000","0.31720","479.108"
"4.00000","0.33332","504.95"
"4.20000","0.34996","531.177"
"4.40000","0.36689","558.332"
"4.60000","0.38382","584.681"
"4.80000","0.39985","610.363"
"5.00000","0.41708","637.907"
"5.20000","0.43372","664.051"
"5.40000","0.44994","689.932"
"5.60000","0.46678","714.387"
"5.80000","0.48341","741.775"
"6.00000","0.50004","767.969"
"6.20000","0.51657","793.984"
"6.40000","0.53370","820.309"
"6.60000","0.55043","845.999"
"6.80000","0.56656","870.043"
"7.00000","0.58329","895.545"
"7.20000","0.60043","921.675"
"7.40000","0.61645","945.355"
"7.60000","0.63329","971.064"
"7.80000","0.65052","996.483"
"8.00000","0.66675","1020.15"
"8.20000","0.68318","1044.02"
"8.40000","0.70011","1067.77"
"8.60000","0.71684","1093.21"
"8.80000","0.73317","1116.77"
"9.00000","0.74980","1140.69"
"9.20000","0.76704","1166.43"
"9.40000","0.78337","1189.12"
"9.60000","0.79980","1211.76"
"9.80000","0.81723","1237.49"
"10.00000","0.83346","1261.51"
"10.20000","0.84989","1284.14"
"10.40000","0.86693","1308.06"
"10.60000","0.88376","1332.53"
"10.80000","0.89978","1354.24"
"11.00000","0.91662","1376.81"
"11.20000","0.93375","1400.15"
"11.40000","0.95028","1423.16"
"11.60000","0.96641","1446.35"
"11.80000","0.98365","1469.81"
"12.00000","1.00048","1493.78"
"12.20000","1.01650","1515.78"
"12.40000","1.03334","1538.32"
"12.60000","1.05017","1561.17"
"12.80000","1.06650","1582.8"
"13.00000","1.08323","1605.19"
"13.20000","1.10016","1628.05"
"13.40000","1.11699","1650.12"
"13.60000","1.13332","1671.98"
"13.80000","1.15016","1692.53"
"14.00000","1.16679","1713.35"
"14.20000","1.18322","1735.03"
"14.40000","1.19995","1755.91"
"14.60000","1.21708","1767.74"
"14.80000","1.23361","1791.5"
"15.00000","1.24974","1813.09"
"15.20000","1.26718","1835.81"
"15.40000","1.28351","1855.05"
"15.60000","1.29983","1874.78"
"15.80000","1.31667","1897.18"
"16.00000","1.33370","1869.77"
"16.20000","1.35013","1893.74"
"16.40000","1.36656","1916.92"
"16.60000","1.38359","1940.87"
"16.80000","1.40023","1965.09"
"17.00000","1.41655","1986.05"
"17.20000","1.43359","2009.46"
"17.40000","1.45052","2033.49"
"17.60000","1.46665","2054.29"
"17.80000","1.48348","2075.88"
"18.00000","1.50001","2097.67"
"18.20000","1.51694","2118.95"
"18.40000","1.53307","2138.14"
"18.60000","1.55021","2159.95"
"18.80000","1.56674","2180.2"
"19.00000","1.58347","2201.22"
"19.20000","1.60010","2221.14"
"19.40000","1.61703","2239.86"
"19.60000","1.63346","2261.59"
"19.80000","1.64989","2282.41"
"20.00000","1.66713","2252.7"
"20.20000","1.68366","2277.4"
"20.40000","1.69988","2298.41"
"20.60000","1.71682","2323.02"
"20.80000","1.73395","2346.75"
"21.00000","1.74998","2367.39"
"21.20000","1.76651","2389.22"
"21.40000","1.78364","2410.74"
"21.60000","1.79997","2431.7"
"21.80000","1.81650","2453.81"
"22.00000","1.83344","2475.71"
"22.20000","1.85047","2497.46"
"22.40000","1.86660","2517.11"
"22.60000","1.88343","2538.29"
"22.80000","1.90036","2559.84"
"23.00000","1.91689","2578.63"
"23.20000","1.93322","2597.77"
"23.40000","1.95056","2618.56"
"23.60000","1.96689","2628.53"
"23.80000","1.98311","2648.92"
"24.00000","2.00025","2671.66"
"24.20000","2.01678","2694.29"
"24.40000","2.03351","2715.29"
"24.60000","2.04994","2679.49"
"24.80000","2.06697","2706.08"
"25.00000","2.08330","2728.64"
"25.20000","2.09963","2748.87"
"25.40000","2.11697","2771.88"
"25.60000","2.13370","2793.79"
"25.80000","2.14983","2814.89"
"26.00000","2.16676","2835.22"
"26.20000","2.18379","2856.18"
"26.40000","2.19992","2876.1"
"26.60000","2.21665","2896.96"
"26.80000","2.23349","2917.5"
"27.00000","2.25032","2936.62"
"27.20000","2.26645","2955.61"
"27.40000","2.28348","2975.34"
"27.60000","2.30001","2993.33"
"27.80000","2.31684","3012.39"
"28.00000","2.33317","3030.58"
"28.20000","2.35021","3050.21"
"28.40000","2.36694","3069.03"
"28.60000","2.38327","3083.49"
"28.80000","2.40040","3104.45"
"29.00000","2.41673","3124.74"
"29.20000","2.43346","3142.42"
"29.40000","2.44999","3095.67"
"29.60000","2.46682","3118.54"
"29.80000","2.48345","3138.42"
"30.00000","2.49988","3159.39"
"30.20000","2.51692","3181.03"
"30.40000","2.53365","3200.49"
"30.60000","2.54978","3219.21"
"30.80000","2.56691","3239.07"
"31.00000","2.58374","3259.05"
"31.20000","2.59987","3277.74"
"31.40000","2.61670","3296.09"
"31.60000","2.63364","3314.94"
"31.80000","2.65027","3334.69"
"32.00000","2.66650","3351.81"
"32.20000","2.68323","3370.51"
"32.40000","2.70046","3389.22"
"32.60000","2.71649","3405.97"
"32.80000","2.73342","3424.06"
"33.00000","2.75036","3440.95"
"33.20000","2.76699","3458.74"
"33.40000","2.78311","3474.07"
"33.60000","2.80055","3491.97"
"33.80000","2.81688","3508.25"
"34.00000","2.83341","3523.84"
"34.20000","2.85024","3540.14"
"34.40000","2.86687","3556.6"
"34.60000","2.88330","3570.78"
"34.80000","2.89973","3587.01"
"35.00000","2.91697","3603.01"
"35.20000","2.93360","3617.92"
"35.40000","2.94973","3632.73"
"35.60000","2.96706","3649.75"
"35.80000","2.98379","3664.65"
"36.00000","2.99982","3605.98"
"36.20000","3.01675","3625.65"
"36.40000","3.03359","3644.01"
"36.60000","3.05032","3662.09"
"36.80000","3.06675","3677.92"
"37.00000","3.08348","3696.07"
"37.20000","3.10041","3711.4"
"37.40000","3.11654","3727.01"
"37.60000","3.13347","3709.42"
"37.80000","3.15020","3729.58"
"38.00000","3.16663","3746.26"
"38.20000","3.18316","3762.44"
"38.40000","3.20060","3779.75"
"38.60000","3.21663","3779.13"
"38.80000","3.23346","3794.35"
"39.00000","3.25039","3808.52"
"39.20000","3.26682","3823.13"
"39.40000","3.28335","3836.7"
"39.60000","3.29998","3850.16"
"39.80000","3.31702","3862.71"
"40.00000","3.33355","3876"
"40.20000","3.34978","3888.53"
"40.40000","3.36691","3902.7"
"40.60000","3.38344","3914.14"
"40.80000","3.39987","3924.34"
"41.00000","3.41690","3936.92"
"41.20000","3.43364","3947.16"
"41.40000","3.44996","3956"
"41.60000","3.46670","3964.54"
"41.80000","3.48353","3971.97"
"42.00000","3.50056","3978.04"
"42.20000","3.51639","3982.12"
"42.40000","3.53372","3986.05"
"42.60000","3.55035","3987.17"
"42.80000","3.56658","3982.16"
"43.00000","3.58331","3973.07"
"43.20000","3.60035","3952.31"
"43.39000","3.61577","3595.98"
"43.39800","3.61658","2850.17"
"43.40400","3.61728","2190.3"

File: Sequence_21.csv
General : Start date,"10/29/2024 9:53 AM"
General : End date,"10/29/2024 9:54 AM"
Specimen notes : Specimen note 1,"Day 2, black, 215, batch 9, seq 21"
Test : Rate 1,"5.00000",mm/min

Time,Extension,Load
(s),(mm),(N)
"0.00000","-0.00020","2.09135"
"0.20000","0.01068","13.23072"
"0.40000","0.03246","57.10105"
"0.60000","0.04899","85.59314"
"0.80000","0.06662","115.639"
"1.00000","0.08346","143.789"
"1.20000","0.09968","170.843"
"1.40000","0.11672","199.894"
"1.60000","0.13385","228.213"
"1.80000","0.14998","255.475"
"2.00000","0.16681","283.301"
"2.20000","0.18375","313.559"
"2.40000","0.20028","341.338"
"2.60000","0.21640","368.598"
"2.80000","0.23344","399.182"
"3.00000","0.25037","426.592"
"3.20000","0.26660","453.359"
"3.40000","0.28353","481.403"
"3.60000","0.30026","509.999"
"3.80000","0.31659","537.37"
"4.00000","0.33292","564.899"
"4.20000","0.35026","593.025"
"4.40000","0.36699","621.619"
"4.60000","0.38312","649.265"
"4.80000","0.40025","674.925"
"5.00000","0.41698","703.007"
"5.20000","0.43321","729.082"
"5.40000","0.44994","756.968"
"5.60000","0.46698","785.056"
"5.80000","0.48351","811.509"
"6.00000","0.49984","837.583"
"6.20000","0.51687","864.046"
"6.40000","0.53350","890.466"
"6.60000","0.54983","917.396"
"6.80000","0.56676","945.985"
"7.00000","0.58370","972.194"
"7.20000","0.59982","999.145"
"7.40000","0.61666","1024.35"
"7.60000","0.63349","1052.18"
"7.80000","0.65022","1078.14"
"8.00000","0.66655","1103.09"
"8.20000","0.68348","1129.48"
"8.40000","0.70011","1155.82"
"8.60000","0.71654","1182.37"
"8.80000","0.73327","1207.93"
"9.00000","0.75031","1233.99"
"9.20000","0.76674","1259.13"
"9.40000","0.78317","1284.39"
"9.60000","0.80020","1309.57"
"9.80000","0.81683","1334.94"
"10.00000","0.83306","1358.95"
"10.20000","0.84989","1384.19"
"10.40000","0.86683","1408.99"
"10.60000","0.88336","1432.67"
"10.80000","0.89978","1457.97"
"11.00000","0.91712","1482.21"
"11.20000","0.93345","1506.51"
"11.40000","0.94988","1529.91"
"11.60000","0.96671","1554.24"
"11.80000","0.98344","1579.04"
"12.00000","0.99997","1603.04"
"12.20000","1.01671","1627.43"
"12.40000","1.03283","1649.18"
"12.60000","1.04987","1673.93"
"12.80000","1.06620","1695.95"
"13.00000","1.08333","1719.88"
"13.20000","1.10016","1742.08"
"13.40000","1.11639","1764.28"
"13.60000","1.13342","1787.71"
"13.80000","1.14995","1811.66"
"14.00000","1.16669","1833.66"
"14.20000","1.18332","1856.63"
"14.40000","1.20025","1879.85"
"14.60000","1.21678","1902.28"
"14.80000","1.23311","1922.93"
"15.00000","1.24984","1944.87"
"15.20000","1.26708","1967.39"
"15.40000","1.28341","1989.12"
"15.60000","1.29983","2010.71"
"15.80000","1.31697","2033.77"
"16.00000","1.33320","2054.94"
"16.20000","1.34973","2074.27"
"16.40000","1.36676","2096.15"
"16.60000","1.38349","2117.37"
"16.80000","1.39952","2138.54"
"17.00000","1.41686","2160.45"
"17.20000","1.43369","2182.3"
"17.40000","1.45022","2201.8"
"17.60000","1.46635","2222.4"
"17.80000","1.48348","2242.68"
"18.00000","1.50031","2262.99"
"18.20000","1.51634","2282.6"
"18.40000","1.53368","2302.92"
"18.60000","1.55011","2322.59"
"18.80000","1.56664","2341.9"
"19.00000","1.58306","2360.53"
"19.20000","1.60000","2380.31"
"19.40000","1.61663","2399.71"
"19.60000","1.63306","2419.35"
"19.80000","1.65029","2439.27"
"20.00000","1.66723","2459.99"
"20.20000","1.68305","2477.55"
"20.40000","1.70009","2496.02"
"20.60000","1.71702","2514.91"
"20.80000","1.73315","2533.27"
"21.00000","1.74988","2550.62"
"21.20000","1.76681","2568.79"
"21.40000","1.78344","2587.17"
"21.60000","1.79967","2603.71"
"21.80000","1.81681","2621.04"
"22.00000","1.83374","2639.3"
"22.20000","1.84987","2655.53"
"22.40000","1.86650","2672"
"22.60000","1.88343","2690.16"
"22.80000","1.90006","2706.63"
"23.00000","1.91639","2723.85"
"23.20000","1.93383","2741.54"
"23.40000","1.94995","2757.52"
"23.60000","1.96648","2773.34"
"23.80000","1.98332","2789.44"
"24.00000","2.00025","2806.64"
"24.20000","2.01658","2822.88"
"24.40000","2.03311","2839.11"
"24.60000","2.05014","2857.15"
"24.80000","2.06697","2874.24"
"25.00000","2.08300","2888.47"
"25.20000","2.10024","2906.15"
"25.40000","2.11697","2922.64"
"25.60000","2.13310","2938.53"
"25.80000","2.14983","2953.58"
"26.00000","2.16676","2970.73"
"26.20000","2.18349","2986.96"
"26.40000","2.19982","3001.25"
"26.60000","2.21655","3018.32"
"26.80000","2.23379","3035"
"27.00000","2.24992","3048.71"
"27.20000","2.26675","3064.72"
"27.40000","2.28338","3080.75"
"27.60000","2.30001","3097.03"
"27.80000","2.31634","3111.8"
"28.00000","2.33378","3129.11"
"28.20000","2.35000","3144.29"
"28.40000","2.36653","3158.51"
"28.60000","2.38337","3174.42"
"28.80000","2.40040","3189.76"
"29.00000","2.41643","3203.65"
"29.20000","2.43306","3219.16"
"29.40000","2.45039","3234.86"
"29.60000","2.46672","3249.55"
"29.80000","2.48285","3264.23"
"30.00000","2.50019","3280.45"
"30.20000","2.51692","3295.23"
"30.40000","2.53315","3309.91"
"30.60000","2.54998","3324.74"
"30.80000","2.56701","3339.8"
"31.00000","2.58344","3354.49"
"31.20000","2.59987","3368.17"
"31.40000","2.61670","3383.39"
"31.60000","2.63374","3397.68"
"31.80000","2.64976","3411.66"
"32.00000","2.66680","3427.11"
"32.20000","2.68353","3441.58"
"32.40000","2.69966","3454.37"
"32.60000","2.71659","3469.74"
"32.80000","2.73352","3483.29"
"33.00000","2.75026","3497.45"
"33.20000","2.76658","3511.46"
"33.40000","2.78372","3524.97"
"33.60000","2.80045","3538.9"
"33.80000","2.81658","3551.64"
"34.00000","2.83321","3566.51"
"34.20000","2.85034","3581.28"
"34.40000","2.86677","3592.7"
"34.60000","2.88300","3604.65"
"34.80000","2.90003","3617.96"
"35.00000","2.91646","3631.35"
"35.20000","2.93309","3644.42"
"35.40000","2.95033","3657.96"
"35.60000","2.96686","3671.04"
"35.80000","2.98319","3682.99"
"36.00000","3.00022","3696.65"
"36.20000","3.01695","3710.15"
"36.40000","3.03379","3722.19"
"36.60000","3.04971","3733.59"
"36.80000","3.06695","3746.93"
"37.00000","3.08348","3758.29"
"37.20000","3.09971","3769.94"
"37.40000","3.11664","3781.86"
"37.60000","3.13347","3794.42"
"37.80000","3.14990","3804.91"
"38.00000","3.16653","3816.87"
"38.20000","3.18337","3827.43"
"38.40000","3.20010","3837.86"
"38.60000","3.21643","3848.67"
"38.80000","3.23316","3859.65"
"39.00000","3.25029","3871.4"
"39.20000","3.26662","3880.56"
"39.40000","3.28325","3891.46"
"39.60000","3.30049","3901.47"
"39.80000","3.31661","3909.9"
"40.00000","3.33314","3918.2"
"40.20000","3.35008","3926.52"
"40.40000","3.36681","3934.76"
"40.60000","3.38314","3942.09"
"40.80000","3.39997","3950.15"
"41.00000","3.41680","3957.15"
"41.20000","3.43354","3962.15"
"41.40000","3.44976","3965.78"
"41.60000","3.46710","3970.94"
"41.80000","3.48353","3972.63"
"42.00000","3.49986","3974.57"
"42.20000","3.51699","3975.42"
"42.40000","3.53342","3974.9"
"42.60000","3.55005","3971.71"
"42.80000","3.56658","3966.56"
"43.00000","3.58352","3958.3"
"43.20000","3.60005","3945.68"
"43.40000","3.61648","3925.45"
"43.60000","3.63341","3889.75"
"43.80000","3.65044","3796.86"
"43.84000","3.65367","3222.23"
"43.84800","3.65447","2405.05"
"43.85000","3.65468","2192.01"

File: Sequence_22.csv
General : Start date,"10/29/2024 9:57 AM"
General : End date,"10/29/2024 9:58 AM"
Specimen notes : Specimen note 1,"Day 2, blue, 215, batch 13, seq 22"
Test : Rate 1,"5.00000",mm/min

Time,Extension,Load
(s),(mm),(N)
"0.00000","-0.00010","0.99171"
"0.20000","0.00947","7.77312"
"0.40000","0.03135","47.56442"
"0.60000","0.04919","79.10521"
"0.80000","0.06632","110.018"
"1.00000","0.08315","139.313"
"1.20000","0.09999","165.514"
"1.40000","0.11672","193.077"
"1.60000","0.13375","220.972"
"1.80000","0.14978","247.423"
"2.00000","0.16661","274.785"
"2.20000","0.18375","301.91"
"2.40000","0.19997","329.062"
"2.60000","0.21681","355.503"
"2.80000","0.23374","382.31"
"3.00000","0.25027","409.325"
"3.20000","0.26660","435.801"
"3.40000","0.28363","462.893"
"3.60000","0.30026","488.169"
"3.80000","0.31690","513.921"
"4.00000","0.33332","537.68"
"4.20000","0.35026","564.507"
"4.40000","0.36689","588.847"
"4.60000","0.38302","613.301"
"4.80000","0.40025","640.062"
"5.00000","0.41718","665.743"
"5.20000","0.43341","689.376"
"5.40000","0.45004","712.939"
"5.60000","0.46698","737.282"
"5.80000","0.48341","761.185"
"6.00000","0.49994","784.339"
"6.20000","0.51687","808.786"
"6.40000","0.53350","833.465"
"6.60000","0.55013","855.81"
"6.80000","0.56676","879.752"
"7.00000","0.58370","902.901"
"7.20000","0.59992","925.768"
"7.40000","0.61666","947.405"
"7.60000","0.63349","972.156"
"7.80000","0.65032","995.424"
"8.00000","0.66645","1018.35"
"8.20000","0.68338","1041.1"
"8.40000","0.70042","1062.97"
"8.60000","0.71664","1084.41"
"8.80000","0.73337","1105.84"
"9.00000","0.75021","1128.71"
"9.20000","0.76704","1150.28"
"9.40000","0.78296","1171.51"
"9.60000","0.80040","1192.18"
"9.80000","0.81693","1212.12"
"10.00000","0.83326","1230.79"
"10.20000","0.85009","1250.91"
"10.40000","0.86713","1270.64"
"10.60000","0.88315","1289.77"
"10.80000","0.89968","1309.39"
"11.00000","0.91712","1329.26"
"11.20000","0.93355","1348.59"
"11.40000","0.94978","1366.18"
"11.60000","0.96691","1386.12"
"11.80000","0.98365","1403.97"
"12.00000","0.99987","1423.45"
"12.20000","1.01681","1442.64"
"12.40000","1.03364","1460.78"
"12.60000","1.05027","1479.35"
"12.80000","1.06660","1497.22"
"13.00000","1.08303","1514.86"
"13.20000","1.09986","1533.77"
"13.40000","1.11619","1551.56"
"13.60000","1.13353","1570.66"
"13.80000","1.15016","1588.25"
"14.00000","1.16659","1606.48"
"14.20000","1.18322","1624.04"
"14.40000","1.20045","1641.23"
"14.60000","1.21668","1660.61"
"14.80000","1.23341","1678.38"
"15.00000","1.25034","1696.17"
"15.20000","1.26698","1714.35"
"15.40000","1.28341","1730.71"
"15.60000","1.29983","1747.05"
"15.80000","1.31697","1764.45"
"16.00000","1.33350","1782.21"
"16.20000","1.34983","1797.28"
"16.40000","1.36696","1816.08"
"16.60000","1.38349","1832.53"
"16.80000","1.39992","1848.57"
"17.00000","1.41676","1865.55"
"17.20000","1.43349","1881.64"
"17.40000","1.44992","1897.91"
"17.60000","1.46665","1915.17"
"17.80000","1.48358","1931.72"
"18.00000","1.50041","1947.83"
"18.20000","1.51644","1962.09"
"18.40000","1.53368","1978.49"
"18.60000","1.55021","1993.5"
"18.80000","1.56653","2008.38"
"19.00000","1.58337","2025.34"
"19.20000","1.60020","2042.04"
"19.40000","1.61673","2056.28"
"19.60000","1.63316","2071.43"
"19.80000","1.65019","2087.14"
"20.00000","1.66703","2102.16"
"20.20000","1.68325","2117.56"
"20.40000","1.70019","2133.17"
"20.60000","1.71712","2148.54"
"20.80000","1.73345","2163.73"
"21.00000","1.74988","2178.21"
"21.20000","1.76711","2192.99"
"21.40000","1.78324","2209.15"
"21.60000","1.79987","2224.84"
"21.80000","1.81681","2239.51"
"22.00000","1.83364","2255.72"
"22.20000","1.84976","2270.56"
"22.40000","1.86670","2286.41"
"22.60000","1.88353","2301.69"
"22.80000","1.90036","2316.51"
"23.00000","1.91629","2331.12"
"23.20000","1.93373","2347.77"
"23.40000","1.95016","2361.85"
"23.60000","1.96648","2376.5"
"23.80000","1.98362","2392.46"
"24.00000","2.00025","2407.64"
"24.20000","2.01658","2422.59"
"24.40000","2.03321","2437.78"
"24.60000","2.05024","2453.1"
"24.80000","2.06687","2468.23"
"25.00000","2.08320","2483.08"
"25.20000","2.10014","2498.61"
"25.40000","2.11727","2513.92"
"25.60000","2.13320","2528.73"
"25.80000","2.14993","2543.72"
"26.00000","2.16726","2559.51"
"26.20000","2.18319","2574.35"
"26.40000","2.19982","2588.58"
"26.60000","2.21706","2603.57"
"26.80000","2.23359","2618.34"
"27.00000","2.24992","2633.77"
"27.20000","2.26665","2649.36"
"27.40000","2.28368","2664.67"
"27.60000","2.30001","2679.15"
"27.80000","2.31664","2694.65"
"28.00000","2.33368","2710.39"
"28.20000","2.35021","2724.24"
"28.40000","2.36633","2738.08"
"28.60000","2.38367","2753.88"
"28.80000","2.40010","2768.82"
"29.00000","2.41683","2783.63"
"29.20000","2.43346","2797.89"
"29.40000","2.45019","2813.68"
"29.60000","2.46662","2827.18"
"29.80000","2.48315","2841.46"
"30.00000","2.50019","2856.66"
"30.20000","2.51702","2871.18"
"30.40000","2.53294","2884.69"
"30.60000","2.55008","2899.69"
"30.80000","2.56691","2914.71"
"31.00000","2.58314","2928.75"
"31.20000","2.60007","2942.54"
"31.40000","2.61711","2957.71"
"31.60000","2.63374","2972.15"
"31.80000","2.64997","2984.96"
"32.00000","2.66670","2999.99"
"32.20000","2.68373","3014.31"
"32.40000","2.69996","3027.98"
"32.60000","2.71659","3041.64"
"32.80000","2.73362","3057.2"
"33.00000","2.75015","3070.21"
"33.20000","2.76638","3083.7"
"33.40000","2.78382","3099.98"
"33.60000","2.80025","3112.74"
"33.80000","2.81678","3128.17"
"34.00000","2.83351","3140.58"
"34.20000","2.85044","3155.51"
"34.40000","2.86687","3169.01"
"34.60000","2.88320","3182.67"
"34.80000","2.90024","3197.29"
"35.00000","2.91707","3210.69"
"35.20000","2.93320","3223.11"
"35.40000","2.95003","3237.19"
"35.60000","2.96686","3250.55"
"35.80000","2.98309","3265.09"
"36.00000","3.00012","3279.59"
"36.20000","3.01685","3293.05"
"36.40000","3.03359","3307.05"
"36.60000","3.05012","3320"
"36.80000","3.06685","3334.5"
"37.00000","3.08388","3347.33"
"37.20000","3.09991","3360.16"
"37.40000","3.11694","3375.76"
"37.60000","3.13377","3388.03"
"37.80000","3.14990","3400.78"
"38.00000","3.16643","3414.41"
"38.20000","3.18387","3427.93"
"38.40000","3.19990","3440.78"
"38.60000","3.21653","3454.04"
"38.80000","3.23346","3466.7"
"39.00000","3.25009","3479.35"
"39.20000","3.26652","3492.55"
"39.40000","3.28315","3505.31"
"39.60000","3.30029","3519.33"
"39.80000","3.31692","3531.83"
"40.00000","3.33325","3544.79"
"40.20000","3.35048","3558.11"
"40.40000","3.36681","3570.41"
"40.60000","3.38304","3581.88"
"40.80000","3.40017","3594.12"
"41.00000","3.41701","3606.48"
"41.20000","3.43323","3618.76"
"41.40000","3.45007","3631.77"
"41.60000","3.46660","3644.09"
"41.80000","3.48363","3653.55"
"42.00000","3.49996","3664.46"
"42.20000","3.51719","3677.71"
"42.40000","3.53352","3688.55"
"42.60000","3.55015","3699.79"
"42.80000","3.56668","3709.84"
"43.00000","3.58382","3722.77"
"43.20000","3.60005","3733.71"
"43.40000","3.61658","3745.25"
"43.60000","3.63351","3756.21"
"43.80000","3.65014","3766.21"
"44.00000","3.66667","3777.16"
"44.20000","3.68340","3788.88"
"44.40000","3.70024","3799.89"
"44.60000","3.71687","3809.19"
"44.80000","3.73330","3818.03"
"45.00000","3.75033","3828.84"
"45.20000","3.76686","3839.88"
"45.40000","3.78329","3848.18"
"45.60000","3.80032","3857.64"
"45.80000","3.81695","3867.94"
"46.00000","3.83338","3876.68"
"46.20000","3.85001","3885.43"
"46.40000","3.86675","3893.61"
"46.60000","3.88348","3902.24"
"46.80000","3.89971","3909.74"
"47.00000","3.91694","3917.31"
"47.20000","3.93377","3925.29"
"47.40000","3.94980","3931.55"
"47.60000","3.96673","3938.14"
"47.80000","3.98387","3943.75"
"48.00000","4.00030","3948.14"
"48.20000","4.01673","3952.58"
"48.40000","4.03376","3956.24"
"48.60000","4.05009","3959.68"
"48.80000","4.06652","3961.23"
"49.00000","4.08335","3962.89"
"49.20000","4.10018","3961.17"
"49.40000","4.11651","3959.53"
"49.60000","4.13335","3957.43"
"49.80000","4.15048","3953.73"
"50.00000","4.16671","3948.11"
"50.20000","4.18324","3940.53"
"50.40000","4.20037","3931.61"
"50.60000","4.21710","3918.6"
"50.80000","4.23303","3900.19"
"51.00000","4.25037","3876.56"
"51.20000","4.26690","3835.25"
"51.40000","4.28353","3449.89"
"51.40800","4.28423","2738.02"
"51.41400","4.28484","2106.4"