Folder: 3D-Filament-Dyes/Data_Processing/Tensile-Data (part 17)

File: Sequence_50.csv
General : Start date,"11/5/2024 8:33 AM"
General : End date,"11/5/2024 8:34 AM"
Specimen notes : Specimen note 1,"Day 3, blue, 230, batch 14, seq 50"
Test : Rate 1,"5.00000",mm/min

Time,Extension,Load
(s),(mm),(N)
"0.00000","0.00000","0.32524"
"0.20000","0.01139","14.19440"
"0.40000","0.03266","56.22188"
"0.60000","0.04989","85.91277"
"0.80000","0.06683","115.48"
"1.00000","0.08346","142.461"
"1.20000","0.10039","170.682"
"1.40000","0.11712","197.319"
"1.60000","0.13355","223.519"
"1.80000","0.15038","249.946"
"2.00000","0.16712","277.528"
"2.20000","0.18344","303.342"
"2.40000","0.20018","330.451"
"2.60000","0.21721","357.544"
"2.80000","0.23334","384.609"
"3.00000","0.25007","411.519"
"3.20000","0.26680","437.11"
"3.40000","0.28353","463.543"
"3.60000","0.30016","488.929"
"3.80000","0.31700","513.141"
"4.00000","0.33393","538.918"
"4.20000","0.35026","564.231"
"4.40000","0.36699","588.457"
"4.60000","0.38372","613.686"
"4.80000","0.40055","636.809"
"5.00000","0.41648","659.733"
"5.20000","0.43361","683.297"
"5.40000","0.45045","706.023"
"5.60000","0.46667","728.964"
"5.80000","0.48361","751.214"
"6.00000","0.49994","772.038"
"6.20000","0.51697","794.276"
"6.40000","0.53340","815.748"
"6.60000","0.55053","836.757"
"6.80000","0.56717","860.239"
"7.00000","0.58339","879.89"
"7.20000","0.60023","901.094"
"7.40000","0.61726","922.271"
"7.60000","0.63319","940.037"
"7.80000","0.64992","961.151"
"8.00000","0.66705","980.193"
"8.20000","0.68338","999.554"
"8.40000","0.69971","1018.72"
"8.60000","0.71684","1037.12"
"8.80000","0.73378","1055.74"
"9.00000","0.75011","1073.19"
"9.20000","0.76664","1092.22"
"9.40000","0.78377","1108.75"
"9.60000","0.80030","1125.13"
"9.80000","0.81653","1142.91"
"10.00000","0.83366","1160.67"
"10.20000","0.85050","1177.22"
"10.40000","0.86652","1195.23"
"10.60000","0.88376","1212.43"
"10.80000","0.90019","1231.04"
"11.00000","0.91682","1247.16"
"11.20000","0.93335","1263.78"
"11.40000","0.95038","1281.29"
"11.60000","0.96671","1296.92"
"11.80000","0.98314","1312.88"
"12.00000","1.00018","1326.95"
"12.20000","1.01711","1343.48"
"12.40000","1.03344","1360.38"
"12.60000","1.05037","1376.36"
"12.80000","1.06720","1391.45"
"13.00000","1.08353","1407.99"
"13.20000","1.10016","1424.03"
"13.40000","1.11699","1442.4"
"13.60000","1.13373","1457.57"
"13.80000","1.14995","1473.34"
"14.00000","1.16699","1490.4"
"14.20000","1.18362","1505.77"
"14.40000","1.19995","1522.91"
"14.60000","1.21678","1538.29"
"14.80000","1.23381","1554.41"
"15.00000","1.25034","1570.78"
"15.20000","1.26657","1585.34"
"15.40000","1.28381","1602.76"
"15.60000","1.30024","1618.41"
"15.80000","1.31697","1634.9"
"16.00000","1.33340","1651.09"
"16.20000","1.35023","1667.54"
"16.40000","1.36686","1683.78"
"16.60000","1.38329","1700.8"
"16.80000","1.40033","1715.41"
"17.00000","1.41706","1732.52"
"17.20000","1.43329","1747.17"
"17.40000","1.45032","1764.09"
"17.60000","1.46695","1780.34"
"17.80000","1.48338","1795.24"
"18.00000","1.50031","1810.81"
"18.20000","1.51694","1827.23"
"18.40000","1.53368","1843.06"
"18.60000","1.54980","1858.14"
"18.80000","1.56664","1874.35"
"19.00000","1.58367","1890.83"
"19.20000","1.59970","1905.9"
"19.40000","1.61683","1921.9"
"19.60000","1.63376","1938.03"
"19.80000","1.65029","1952.8"
"20.00000","1.66652","1967.92"
"20.20000","1.68366","1985.2"
"20.40000","1.70029","2001.27"
"20.60000","1.71682","2016.79"
"20.80000","1.73355","2033.47"
"21.00000","1.75038","2049.97"
"21.20000","1.76661","2066.63"
"21.40000","1.78334","2082.03"
"21.60000","1.80068","2098.6"
"21.80000","1.81691","2113.84"
"22.00000","1.83344","2128.32"
"22.20000","1.85017","2144.76"
"22.40000","1.86700","2159.88"
"22.60000","1.88323","2175.3"
"22.80000","1.90016","2191.68"
"23.00000","1.91699","2206.74"
"23.20000","1.93363","2222.5"
"23.40000","1.94985","2237.92"
"23.60000","1.96709","2253.99"
"23.80000","1.98382","2269.15"
"24.00000","1.99985","2284.81"
"24.20000","2.01708","2301.49"
"24.40000","2.03361","2317.29"
"24.60000","2.04994","2333.19"
"24.80000","2.06677","2347.91"
"25.00000","2.08361","2364.14"
"25.20000","2.10024","2381.23"
"25.40000","2.11677","2395.82"
"25.60000","2.13380","2412.69"
"25.80000","2.15053","2428.3"
"26.00000","2.16676","2445.22"
"26.20000","2.18339","2460.67"
"26.40000","2.20073","2475.96"
"26.60000","2.21665","2492.58"
"26.80000","2.23349","2508.91"
"27.00000","2.25042","2525.01"
"27.20000","2.26685","2540.28"
"27.40000","2.28308","2554.45"
"27.60000","2.30021","2571.39"
"27.80000","2.31684","2586.3"
"28.00000","2.33357","2601.78"
"28.20000","2.35000","2617.84"
"28.40000","2.36704","2634.14"
"28.60000","2.38367","2649.95"
"28.80000","2.39990","2664.76"
"29.00000","2.41743","2681.96"
"29.20000","2.43376","2698"
"29.40000","2.45009","2712.61"
"29.60000","2.46672","2728.51"
"29.80000","2.48345","2744.11"
"30.00000","2.50009","2758.55"
"30.20000","2.51651","2773.47"
"30.40000","2.53365","2790.65"
"30.60000","2.55028","2805.61"
"30.80000","2.56661","2821.09"
"31.00000","2.58354","2837.63"
"31.20000","2.60058","2853.97"
"31.40000","2.61670","2869.58"
"31.60000","2.63344","2883.91"
"31.80000","2.65027","2898.83"
"32.00000","2.66700","2915.92"
"32.20000","2.68323","2929.17"
"32.40000","2.70046","2945.79"
"32.60000","2.71730","2961.27"
"32.80000","2.73322","2974.58"
"33.00000","2.75026","2990.93"
"33.20000","2.76699","3005.34"
"33.40000","2.78362","3021.46"
"33.60000","2.79985","3035.2"
"33.80000","2.81708","3051.35"
"34.00000","2.83361","3066.95"
"34.20000","2.84994","3083.14"
"34.40000","2.86697","3098.2"
"34.60000","2.88381","3113.66"
"34.80000","2.90034","3127.93"
"35.00000","2.91656","3142.67"
"35.20000","2.93390","3158.54"
"35.40000","2.95033","3171.74"
"35.60000","2.96636","3186.89"
"35.80000","2.98359","3202.84"
"36.00000","3.00053","3217.44"
"36.20000","3.01675","3231.48"
"36.40000","3.03349","3247.07"
"36.60000","3.05042","3261.21"
"36.80000","3.06675","3278.1"
"37.00000","3.08338","3291.6"
"37.20000","3.10051","3307.55"
"37.40000","3.11714","3322.32"
"37.60000","3.13317","3336.49"
"37.80000","3.15020","3351.63"
"38.00000","3.16724","3365.91"
"38.20000","3.18326","3379.62"
"38.40000","3.20010","3393.5"
"38.60000","3.21713","3408.61"
"38.80000","3.23366","3423.22"
"39.00000","3.24999","3437.22"
"39.20000","3.26712","3453.1"
"39.40000","3.28355","3466.53"
"39.60000","3.30029","3481.91"
"39.80000","3.31682","3495.76"
"40.00000","3.33385","3510.35"
"40.20000","3.35028","3524.58"
"40.40000","3.36671","3537.2"
"40.60000","3.38374","3551.93"
"40.80000","3.40017","3566.37"
"41.00000","3.41640","3579.18"
"41.20000","3.43354","3593.94"
"41.40000","3.45037","3607.6"
"41.60000","3.46670","3621.13"
"41.80000","3.48353","3635.08"
"42.00000","3.50046","3649.42"
"42.20000","3.51719","3661.89"
"42.40000","3.53332","3674.02"
"42.60000","3.55035","3688.67"
"42.80000","3.56709","3701.57"
"43.00000","3.58331","3714.13"
"43.20000","3.60025","3727.66"
"43.40000","3.61708","3740.86"
"43.60000","3.63371","3752.74"
"43.80000","3.65004","3764.06"
"44.00000","3.66687","3777.1"
"44.20000","3.68360","3789.4"
"44.40000","3.70013","3800.32"
"44.60000","3.71687","3812.58"
"44.80000","3.73380","3823.95"
"45.00000","3.75023","3835.97"
"45.20000","3.76656","3846.98"
"45.40000","3.78389","3859.18"
"45.60000","3.80022","3868.22"
"45.80000","3.81675","3878.85"
"46.00000","3.83359","3889.54"
"46.20000","3.85032","3898.96"
"46.40000","3.86644","3908.44"
"46.60000","3.88338","3917.61"
"46.80000","3.90031","3926.54"
"47.00000","3.91704","3933.29"
"47.20000","3.93327","3939.82"
"47.40000","3.95040","3947.61"
"47.60000","3.96714","3950.88"
"47.80000","3.98316","3953.25"
"48.00000","4.00040","3956.16"
"48.20000","4.01713","3958.53"
"48.40000","4.03346","3955.73"
"48.60000","4.04999","3952.89"
"48.80000","4.06702","3949.19"
"49.00000","4.08365","3940.91"
"49.20000","4.10008","3929.99"
"49.40000","4.11692","3912.44"
"49.60000","4.13365","3886.29"
"49.80000","4.15018","3840.05"
"49.97000","4.16439","3487.96"
"49.97800","4.16510","2771.89"
"49.98400","4.16580","2132.67"

File: Sequence_51.csv
General : Start date,"11/5/2024 8:35 AM"
General : End date,"11/5/2024 8:35 AM"
Specimen notes : Specimen note 1,"Day 3, purple, 230, batch 17, seq 51"
Test : Rate 1,"5.00000",mm/min

Time,Extension,Load
(s),(mm),(N)
"0.00000","-0.00010","0.34731"
"0.20000","0.01008","10.96329"
"0.40000","0.03175","55.44476"
"0.60000","0.04919","86.01320"
"0.80000","0.06673","117.299"
"1.00000","0.08336","144.484"
"1.20000","0.09999","172.387"
"1.40000","0.11692","200.076"
"1.60000","0.13355","228.013"
"1.80000","0.14998","255.26"
"2.00000","0.16671","282.821"
"2.20000","0.18355","311.837"
"2.40000","0.20008","337.838"
"2.60000","0.21640","365.156"
"2.80000","0.23354","393.92"
"3.00000","0.24997","420.96"
"3.20000","0.26640","447.72"
"3.40000","0.28353","475.509"
"3.60000","0.29986","501.487"
"3.80000","0.31669","529.462"
"4.00000","0.33332","554.4"
"4.20000","0.35036","581.171"
"4.40000","0.36699","606.987"
"4.60000","0.38342","631.444"
"4.80000","0.40015","656.726"
"5.00000","0.41698","682.366"
"5.20000","0.43321","705.849"
"5.40000","0.45004","730.395"
"5.60000","0.46688","753.198"
"5.80000","0.48341","776.585"
"6.00000","0.49973","798.826"
"6.20000","0.51687","823.224"
"6.40000","0.53320","845.294"
"6.60000","0.55003","868.312"
"6.80000","0.56666","891.531"
"7.00000","0.58370","914.822"
"7.20000","0.60002","935.64"
"7.40000","0.61645","957.032"
"7.60000","0.63359","979.984"
"7.80000","0.65002","1000.7"
"8.00000","0.66635","1020.86"
"8.20000","0.68348","1043.45"
"8.40000","0.70001","1064.13"
"8.60000","0.71614","1083.23"
"8.80000","0.73327","1103.75"
"9.00000","0.75021","1125.51"
"9.20000","0.76684","1145.83"
"9.40000","0.78317","1165.68"
"9.60000","0.80020","1185.94"
"9.80000","0.81713","1205.13"
"10.00000","0.83306","1223.96"
"10.20000","0.84999","1243.32"
"10.40000","0.86683","1261.7"
"10.60000","0.88325","1280.1"
"10.80000","0.89978","1298.54"
"11.00000","0.91682","1316.67"
"11.20000","0.93335","1334.33"
"11.40000","0.94968","1351.77"
"11.60000","0.96671","1371.48"
"11.80000","0.98344","1388.89"
"12.00000","0.99977","1406.65"
"12.20000","1.01620","1425.2"
"12.40000","1.03394","1444.56"
"12.60000","1.04997","1462.53"
"12.80000","1.06670","1480.24"
"13.00000","1.08373","1499.77"
"13.20000","1.10016","1517.32"
"13.40000","1.11639","1533.6"
"13.60000","1.13353","1552.67"
"13.80000","1.15046","1569.84"
"14.00000","1.16648","1587.54"
"14.20000","1.18312","1603.33"
"14.40000","1.20005","1620.33"
"14.60000","1.21678","1638.23"
"14.80000","1.23291","1654.23"
"15.00000","1.25034","1671.46"
"15.20000","1.26698","1687.96"
"15.40000","1.28320","1703.89"
"15.60000","1.30004","1720.79"
"15.80000","1.31687","1737.03"
"16.00000","1.33340","1754.04"
"16.20000","1.34973","1770.71"
"16.40000","1.36696","1788.23"
"16.60000","1.38349","1803.71"
"16.80000","1.39982","1819.94"
"17.00000","1.41665","1836.74"
"17.20000","1.43359","1854.18"
"17.40000","1.44982","1870.22"
"17.60000","1.46655","1886.51"
"17.80000","1.48368","1903.1"
"18.00000","1.50011","1919.58"
"18.20000","1.51664","1934.26"
"18.40000","1.53347","1950.27"
"18.60000","1.55031","1966.69"
"18.80000","1.56643","1982.73"
"19.00000","1.58296","1998.04"
"19.20000","1.60000","2016.12"
"19.40000","1.61663","2031.86"
"19.60000","1.63306","2049.25"
"19.80000","1.65029","2065.45"
"20.00000","1.66682","2082.04"
"20.20000","1.68305","2097.12"
"20.40000","1.70009","2114.3"
"20.60000","1.71662","2129.67"
"20.80000","1.73335","2145.68"
"21.00000","1.74988","2160.66"
"21.20000","1.76691","2178.21"
"21.40000","1.78314","2193.38"
"21.60000","1.79997","2209.53"
"21.80000","1.81691","2227.43"
"22.00000","1.83364","2244.39"
"22.20000","1.84976","2261.65"
"22.40000","1.86670","2278.75"
"22.60000","1.88353","2294.73"
"22.80000","1.89996","2310.65"
"23.00000","1.91649","2326.18"
"23.20000","1.93342","2344.09"
"23.40000","1.95026","2359.7"
"23.60000","1.96628","2374.7"
"23.80000","1.98352","2392.48"
"24.00000","2.00035","2408.36"
"24.20000","2.01658","2422.61"
"24.40000","2.03311","2440.03"
"24.60000","2.05024","2457.24"
"24.80000","2.06657","2473.35"
"25.00000","2.08290","2489.34"
"25.20000","2.10024","2506.93"
"25.40000","2.11667","2524.11"
"25.60000","2.13330","2541.87"
"25.80000","2.14993","2556.92"
"26.00000","2.16706","2572.35"
"26.20000","2.18349","2589.09"
"26.40000","2.19982","2605.89"
"26.60000","2.21716","2624.01"
"26.80000","2.23359","2640.99"
"27.00000","2.24992","2657.81"
"27.20000","2.26675","2675.43"
"27.40000","2.28348","2691.58"
"27.60000","2.29961","2708.79"
"27.80000","2.31674","2724.79"
"28.00000","2.33337","2742.66"
"28.20000","2.35021","2759.11"
"28.40000","2.36643","2775.28"
"28.60000","2.38357","2793.48"
"28.80000","2.40030","2808.79"
"29.00000","2.41643","2825.3"
"29.20000","2.43346","2842.43"
"29.40000","2.45049","2860.13"
"29.60000","2.46672","2877.32"
"29.80000","2.48305","2892.83"
"30.00000","2.49998","2909.58"
"30.20000","2.51641","2925.09"
"30.40000","2.53315","2942.1"
"30.60000","2.54978","2958.21"
"30.80000","2.56671","2975.47"
"31.00000","2.58334","2991.47"
"31.20000","2.59987","3007.08"
"31.40000","2.61711","3024.1"
"31.60000","2.63333","3040.07"
"31.80000","2.64997","3054.69"
"32.00000","2.66690","3072.52"
"32.20000","2.68363","3089.7"
"32.40000","2.69976","3105.15"
"32.60000","2.71659","3121"
"32.80000","2.73372","3138.23"
"33.00000","2.75026","3154.71"
"33.20000","2.76638","3169.84"
"33.40000","2.78342","3185.37"
"33.60000","2.80025","3200.71"
"33.80000","2.81627","3216.98"
"34.00000","2.83351","3233.6"
"34.20000","2.85004","3249.9"
"34.40000","2.86667","3265.38"
"34.60000","2.88320","3280.73"
"34.80000","2.90014","3296.21"
"35.00000","2.91697","3312.79"
"35.20000","2.93320","3327.02"
"35.40000","2.95013","3342.81"
"35.60000","2.96686","3358.27"
"35.80000","2.98309","3372.16"
"36.00000","2.99972","3385.97"
"36.20000","3.01695","3401.24"
"36.40000","3.03328","3414.24"
"36.60000","3.05002","3428.4"
"36.80000","3.06685","3441.89"
"37.00000","3.08348","3454.88"
"37.20000","3.09971","3467.49"
"37.40000","3.11684","3480.69"
"37.60000","3.13367","3491.88"
"37.80000","3.14990","3502.84"
"38.00000","3.16633","3513.18"
"38.20000","3.18367","3522.92"
"38.40000","3.20010","3529.03"
"38.60000","3.21622","3532.4"
"38.80000","3.23366","3527.45"
"38.91400","3.24314","3236.86"
"38.92200","3.24384","2537.7"
"38.92800","3.24455","1938.4"

File: Sequence_52.csv
General : Start date,"11/5/2024 8:38 AM"
General : End date,"11/5/2024 8:39 AM"
Specimen notes : Specimen note 1,"Day 3, green, 215, batch 20, seq 52"
Test : Rate 1,"5.00000",mm/min

Time,Extension,Load
(s),(mm),(N)
"0.00000","0.00000","0.01463"
"0.20000","0.00887","9.03771"
"0.40000","0.03195","54.05434"
"0.60000","0.04959","84.19261"
"0.80000","0.06622","112.351"
"1.00000","0.08356","139.475"
"1.20000","0.10019","167.609"
"1.40000","0.11682","195.992"
"1.60000","0.13345","221.545"
"1.80000","0.15038","249.053"
"2.00000","0.16712","275.691"
"2.20000","0.18344","301.901"
"2.40000","0.20028","330.189"
"2.60000","0.21691","357.894"
"2.80000","0.23354","384.706"
"3.00000","0.24997","410.856"
"3.20000","0.26700","438.035"
"3.40000","0.28323","463.403"
"3.60000","0.29996","489.24"
"3.80000","0.31679","514.88"
"4.00000","0.33343","541.615"
"4.20000","0.35006","567.74"
"4.40000","0.36699","593.873"
"4.60000","0.38372","619.191"
"4.80000","0.40025","644.136"
"5.00000","0.41698","668.768"
"5.20000","0.43372","693.739"
"5.40000","0.45045","717.769"
"5.60000","0.46637","740.714"
"5.80000","0.48361","766.706"
"6.00000","0.50034","791.199"
"6.20000","0.51657","814.007"
"6.40000","0.53350","837.281"
"6.60000","0.55003","860.321"
"6.80000","0.56676","882.886"
"7.00000","0.58339","905.757"
"7.20000","0.60043","928.839"
"7.40000","0.61706","950.568"
"7.60000","0.63329","972.895"
"7.80000","0.65002","995.567"
"8.00000","0.66715","1017.37"
"8.20000","0.68328","1037.68"
"8.40000","0.69991","1058.97"
"8.60000","0.71695","1080.73"
"8.80000","0.73337","1101.94"
"9.00000","0.74970","1121.33"
"9.20000","0.76684","1142.83"
"9.40000","0.78367","1164.03"
"9.60000","0.80000","1184.23"
"9.80000","0.81673","1204.39"
"10.00000","0.83366","1224.91"
"10.20000","0.85030","1244.28"
"10.40000","0.86652","1262.53"
"10.60000","0.88356","1282.2"
"10.80000","0.90049","1300.14"
"11.00000","0.91652","1316.12"
"11.20000","0.93345","1334.41"
"11.40000","0.95018","1351.1"
"11.60000","0.96681","1368.06"
"11.80000","0.98324","1385.01"
"12.00000","1.00028","1402.59"
"12.20000","1.01671","1420.65"
"12.40000","1.03324","1438.76"
"12.60000","1.05007","1456.37"
"12.80000","1.06710","1474.02"
"13.00000","1.08343","1491.92"
"13.20000","1.10036","1509.28"
"13.40000","1.11710","1526.13"
"13.60000","1.13342","1543.28"
"13.80000","1.15006","1559.32"
"14.00000","1.16699","1577.91"
"14.20000","1.18362","1594.25"
"14.40000","1.19985","1611.53"
"14.60000","1.21688","1629.24"
"14.80000","1.23361","1645.41"
"15.00000","1.24994","1663.07"
"15.20000","1.26657","1678.5"
"15.40000","1.28371","1695.28"
"15.60000","1.30044","1710.77"
"15.80000","1.31657","1725.83"
"16.00000","1.33390","1742.72"
"16.20000","1.35023","1758.93"
"16.40000","1.36696","1775.36"
"16.60000","1.38329","1791.47"
"16.80000","1.40033","1807.9"
"17.00000","1.41686","1823.8"
"17.20000","1.43318","1838.95"
"17.40000","1.45022","1856.11"
"17.60000","1.46685","1870.96"
"17.80000","1.48318","1885.82"
"18.00000","1.50031","1903.27"
"18.20000","1.51694","1919.21"
"18.40000","1.53347","1935.39"
"18.60000","1.55011","1951.09"
"18.80000","1.56704","1967.31"
"19.00000","1.58357","1983.26"
"19.20000","1.59970","1997.66"
"19.40000","1.61663","2013.24"
"19.60000","1.63356","2029.01"
"19.80000","1.64969","2045.29"
"20.00000","1.66682","2062.67"
"20.20000","1.68366","2077.35"
"20.40000","1.70019","2093.81"
"20.60000","1.71652","2109.79"
"20.80000","1.73365","2125.09"
"21.00000","1.75028","2140.56"
"21.20000","1.76671","2155.72"
"21.40000","1.78344","2171.52"
"21.60000","1.80038","2187.64"
"21.80000","1.81660","2203.73"
"22.00000","1.83334","2219.62"
"22.20000","1.85057","2234.76"
"22.40000","1.86690","2250.95"
"22.60000","1.88323","2266.05"
"22.80000","1.90016","2283.27"
"23.00000","1.91699","2298.69"
"23.20000","1.93312","2313.25"
"23.40000","1.94995","2329.84"
"23.60000","1.96699","2347.22"
"23.80000","1.98362","2361.97"
"24.00000","1.99995","2376.85"
"24.20000","2.01708","2393.7"
"24.40000","2.03381","2410.32"
"24.60000","2.04984","2426.11"
"24.80000","2.06687","2442.37"
"25.00000","2.08361","2457.86"
"25.20000","2.10004","2473.49"
"25.40000","2.11667","2489.73"
"25.60000","2.13350","2504.23"
"25.80000","2.15023","2520.94"
"26.00000","2.16676","2536.34"
"26.20000","2.18369","2552.64"
"26.40000","2.20043","2567.1"
"26.60000","2.21675","2582.59"
"26.80000","2.23328","2597.72"
"27.00000","2.25052","2614.5"
"27.20000","2.26675","2629.12"
"27.40000","2.28338","2644.99"
"27.60000","2.30031","2661.34"
"27.80000","2.31684","2677.65"
"28.00000","2.33307","2691.32"
"28.20000","2.35021","2707.55"
"28.40000","2.36694","2722.8"
"28.60000","2.38347","2737.79"
"28.80000","2.39990","2752.98"
"29.00000","2.41693","2769.04"
"29.20000","2.43376","2784.87"
"29.40000","2.44979","2798.96"
"29.60000","2.46723","2815.58"
"29.80000","2.48376","2830.82"
"30.00000","2.49998","2844.06"
"30.20000","2.51672","2859.63"
"30.40000","2.53325","2875.6"
"30.60000","2.55008","2891.02"
"30.80000","2.56631","2905.36"
"31.00000","2.58344","2921.67"
"31.20000","2.60027","2936.75"
"31.40000","2.61670","2951.19"
"31.60000","2.63344","2966.69"
"31.80000","2.65047","2982.28"
"32.00000","2.66670","2996.57"
"32.20000","2.68343","3011.9"
"32.40000","2.70036","3026.55"
"32.60000","2.71699","3041"
"32.80000","2.73312","3055.59"
"33.00000","2.75036","3072.68"
"33.20000","2.76719","3086.46"
"33.40000","2.78332","3101.86"
"33.60000","2.80005","3116.88"
"33.80000","2.81698","3132.47"
"34.00000","2.83351","3147.21"
"34.20000","2.84964","3160.43"
"34.40000","2.86707","3176.77"
"34.60000","2.88361","3191.82"
"34.80000","2.89993","3206.04"
"35.00000","2.91687","3220.74"
"35.20000","2.93380","3236.36"
"35.40000","2.95033","3250.5"
"35.60000","2.96656","3263.86"
"35.80000","2.98379","3278.64"
"36.00000","3.00022","3293.44"
"36.20000","3.01625","3307.62"
"36.40000","3.03338","3323.14"
"36.60000","3.05042","3337.35"
"36.80000","3.06675","3349.96"
"37.00000","3.08358","3364.87"
"37.20000","3.10041","3380.15"
"37.40000","3.11674","3393.19"
"37.60000","3.13337","3406.95"
"37.80000","3.15041","3421.53"
"38.00000","3.16704","3435.45"
"38.20000","3.18316","3449.11"
"38.40000","3.20010","3462.84"
"38.60000","3.21713","3475.67"
"38.80000","3.23326","3490.1"
"39.00000","3.24999","3505.2"
"39.20000","3.26712","3516.99"
"39.40000","3.28355","3530.5"
"39.60000","3.29978","3543.51"
"39.80000","3.31702","3556.96"
"40.00000","3.33345","3570.76"
"40.20000","3.35028","3583.51"
"40.40000","3.36661","3595.73"
"40.60000","3.38374","3610.23"
"40.80000","3.40027","3622.33"
"41.00000","3.41670","3634.56"
"41.20000","3.43364","3647.35"
"41.40000","3.45017","3659.26"
"41.60000","3.46639","3671.53"
"41.80000","3.48353","3684.06"
"42.00000","3.50036","3696.91"
"42.20000","3.51669","3709.28"
"42.40000","3.53352","3720.51"
"42.60000","3.55046","3732.3"
"42.80000","3.56719","3742.98"
"43.00000","3.58321","3753.91"
"43.20000","3.60025","3765.59"
"43.40000","3.61708","3776.32"
"43.60000","3.63321","3787.23"
"43.80000","3.65014","3797.73"
"44.00000","3.66697","3808.49"
"44.20000","3.68370","3817.8"
"44.40000","3.69993","3826.69"
"44.60000","3.71666","3837.09"
"44.80000","3.73360","3845.51"
"45.00000","3.75013","3855.17"
"45.20000","3.76676","3862.9"
"45.40000","3.78379","3871.51"
"45.60000","3.80002","3878.15"
"45.80000","3.81655","3884.9"
"46.00000","3.83379","3892.24"
"46.20000","3.85032","3896.89"
"46.40000","3.86665","3901.96"
"46.60000","3.88368","3906.82"
"46.80000","3.90021","3909.6"
"47.00000","3.91644","3911.53"
"47.20000","3.93347","3913.63"
"47.40000","3.95030","3913.06"
"47.60000","3.96693","3909.79"
"47.80000","3.98316","3903.57"
"48.00000","4.00040","3894.72"
"48.20000","4.01713","3876.3"
"48.40000","4.03316","3838.76"
"48.57600","4.04828","3422.55"
"48.58400","4.04908","2671.55"
"48.58800","4.04959","2241.74"