Folder: 3D-Filament-Dyes/Data_Processing/Tensile-Data (part 18)

File: Sequence_53.csv
General : Start date,"11/5/2024 8:40 AM"
General : End date,"11/5/2024 8:41 AM"
Specimen notes : Specimen note 1,"Day 3, red, 230, batch 16, seq 53"
Test : Rate 1,"5.00000",mm/min

Time,Extension,Load
(s),(mm),(N)
"0.00000","0.00000","-0.23173"
"0.20000","0.00978","0.46561"
"0.40000","0.02691","24.56135"
"0.60000","0.04778","68.55077"
"0.80000","0.06642","103.879"
"1.00000","0.08336","133.537"
"1.20000","0.09979","162.39"
"1.40000","0.11702","192.746"
"1.60000","0.13375","221.076"
"1.80000","0.15028","249.779"
"2.00000","0.16691","276.674"
"2.20000","0.18375","305.388"
"2.40000","0.20038","332.831"
"2.60000","0.21671","360.552"
"2.80000","0.23364","390.409"
"3.00000","0.25037","418.986"
"3.20000","0.26670","445.4"
"3.40000","0.28363","473.886"
"3.60000","0.30047","500.839"
"3.80000","0.31649","528.752"
"4.00000","0.33353","556.111"
"4.20000","0.35026","583.479"
"4.40000","0.36689","610.587"
"4.60000","0.38332","636.658"
"4.80000","0.40055","664.273"
"5.00000","0.41718","690.373"
"5.20000","0.43341","714.373"
"5.40000","0.45045","739.296"
"5.60000","0.46708","765.498"
"5.80000","0.48351","790.977"
"6.00000","0.49994","813.944"
"6.20000","0.51717","839.7"
"6.40000","0.53360","862.857"
"6.60000","0.54973","885.874"
"6.80000","0.56717","910.861"
"7.00000","0.58319","932.83"
"7.20000","0.60033","956.645"
"7.40000","0.61676","978.715"
"7.60000","0.63399","1002.01"
"7.80000","0.65032","1025.03"
"8.00000","0.66665","1046.39"
"8.20000","0.68358","1069.7"
"8.40000","0.70042","1090.99"
"8.60000","0.71644","1111"
"8.80000","0.73358","1132.5"
"9.00000","0.75021","1154.22"
"9.20000","0.76643","1175.12"
"9.40000","0.78347","1195.41"
"9.60000","0.80040","1216.89"
"9.80000","0.81703","1238.31"
"10.00000","0.83336","1257.03"
"10.20000","0.85019","1276.91"
"10.40000","0.86713","1296.72"
"10.60000","0.88336","1314.14"
"10.80000","0.90009","1333.1"
"11.00000","0.91682","1352.48"
"11.20000","0.93355","1372.32"
"11.40000","0.94998","1390.1"
"11.60000","0.96691","1410.86"
"11.80000","0.98334","1430.17"
"12.00000","1.00018","1449.16"
"12.20000","1.01681","1469.19"
"12.40000","1.03354","1487.57"
"12.60000","1.05027","1506.73"
"12.80000","1.06640","1523.89"
"13.00000","1.08373","1544.2"
"13.20000","1.10026","1561.74"
"13.40000","1.11699","1579.33"
"13.60000","1.13373","1597.15"
"13.80000","1.15066","1616.13"
"14.00000","1.16659","1632.3"
"14.20000","1.18352","1650.57"
"14.40000","1.20045","1670.08"
"14.60000","1.21708","1686.6"
"14.80000","1.23321","1705.02"
"15.00000","1.25014","1723.98"
"15.20000","1.26708","1742.54"
"15.40000","1.28310","1760.01"
"15.60000","1.30024","1778.06"
"15.80000","1.31707","1797.22"
"16.00000","1.33370","1814.25"
"16.20000","1.35003","1832.15"
"16.40000","1.36706","1851.79"
"16.60000","1.38380","1868.99"
"16.80000","1.40002","1886.21"
"17.00000","1.41696","1904.15"
"17.20000","1.43369","1922.26"
"17.40000","1.45012","1938.8"
"17.60000","1.46665","1956.64"
"17.80000","1.48388","1975.39"
"18.00000","1.50011","1992.35"
"18.20000","1.51664","2009.77"
"18.40000","1.53378","2027.43"
"18.60000","1.55041","2046.09"
"18.80000","1.56664","2062.79"
"19.00000","1.58367","2081.28"
"19.20000","1.60050","2099.09"
"19.40000","1.61673","2115.41"
"19.60000","1.63316","2131.8"
"19.80000","1.65019","2149.81"
"20.00000","1.66682","2166.88"
"20.20000","1.68305","2183.56"
"20.40000","1.70039","2202.93"
"20.60000","1.71702","2219"
"20.80000","1.73345","2236.63"
"21.00000","1.75008","2254.26"
"21.20000","1.76691","2274.22"
"21.40000","1.78374","2290.25"
"21.60000","1.79997","2307.44"
"21.80000","1.81691","2325.94"
"22.00000","1.83344","2341.95"
"22.20000","1.85017","2359.88"
"22.40000","1.86690","2378.68"
"22.60000","1.88403","2396.57"
"22.80000","1.89996","2412.98"
"23.00000","1.91679","2429.99"
"23.20000","1.93363","2448.25"
"23.40000","1.95026","2466.15"
"23.60000","1.96658","2481.85"
"23.80000","1.98352","2499.85"
"24.00000","2.00045","2518.59"
"24.20000","2.01668","2535.79"
"24.40000","2.03341","2553.28"
"24.60000","2.05044","2570.81"
"24.80000","2.06708","2587.39"
"25.00000","2.08320","2604.42"
"25.20000","2.10034","2623.64"
"25.40000","2.11687","2641"
"25.60000","2.13330","2658.33"
"25.80000","2.15023","2675.96"
"26.00000","2.16676","2693.86"
"26.20000","2.18369","2711.43"
"26.40000","2.20002","2727.78"
"26.60000","2.21726","2746.62"
"26.80000","2.23379","2762.4"
"27.00000","2.25002","2779.33"
"27.20000","2.26695","2797.39"
"27.40000","2.28388","2814.79"
"27.60000","2.30001","2830.2"
"27.80000","2.31674","2848.19"
"28.00000","2.33368","2865.15"
"28.20000","2.35010","2882.12"
"28.40000","2.36653","2898.26"
"28.60000","2.38347","2916.6"
"28.80000","2.40050","2932.35"
"29.00000","2.41673","2948.78"
"29.20000","2.43346","2966.21"
"29.40000","2.45049","2983.45"
"29.60000","2.46692","2999.21"
"29.80000","2.48335","3015.78"
"30.00000","2.50069","3033.36"
"30.20000","2.51702","3049"
"30.40000","2.53315","3066.21"
"30.60000","2.55028","3082.49"
"30.80000","2.56671","3099.35"
"31.00000","2.58334","3115.24"
"31.20000","2.59977","3132.46"
"31.40000","2.61701","3149.83"
"31.60000","2.63354","3165.16"
"31.80000","2.64986","3180.9"
"32.00000","2.66730","3198.64"
"32.20000","2.68373","3214.53"
"32.40000","2.70006","3231.01"
"32.60000","2.71679","3247.18"
"32.80000","2.73372","3264.1"
"33.00000","2.75015","3279.88"
"33.20000","2.76668","3296.43"
"33.40000","2.78392","3314.55"
"33.60000","2.80055","3329.6"
"33.80000","2.81648","3344.59"
"34.00000","2.83361","3361.62"
"34.20000","2.85034","3377.79"
"34.40000","2.86657","3393.95"
"34.60000","2.88350","3410.21"
"34.80000","2.90034","3426.53"
"35.00000","2.91697","3441.78"
"35.20000","2.93340","3458.35"
"35.40000","2.95033","3474.75"
"35.60000","2.96706","3490.21"
"35.80000","2.98359","3505.43"
"36.00000","3.00012","3521.74"
"36.20000","3.01716","3537.61"
"36.40000","3.03338","3553.24"
"36.60000","3.04981","3568.74"
"36.80000","3.06715","3585.1"
"37.00000","3.08368","3601.01"
"37.20000","3.10011","3615.93"
"37.40000","3.11704","3631.86"
"37.60000","3.13367","3646.55"
"37.80000","3.14990","3661.3"
"38.00000","3.16684","3677.02"
"38.20000","3.18377","3692.01"
"38.40000","3.20040","3708.31"
"38.60000","3.21653","3723.14"
"38.80000","3.23356","3738.52"
"39.00000","3.25039","3753.44"
"39.20000","3.26652","3767.45"
"39.40000","3.28365","3784.01"
"39.60000","3.30049","3796.48"
"39.80000","3.31692","3811.06"
"40.00000","3.33335","3825.36"
"40.20000","3.35038","3839.8"
"40.40000","3.36711","3854.76"
"40.60000","3.38354","3869.32"
"40.80000","3.40017","3882.94"
"41.00000","3.41701","3896.54"
"41.20000","3.43343","3911.22"
"41.40000","3.45007","3923.88"
"41.60000","3.46740","3938.09"
"41.80000","3.48333","3949.29"
"42.00000","3.49986","3963.22"
"42.20000","3.51689","3976.74"
"42.40000","3.53372","3988.42"
"42.60000","3.54975","4001.13"
"42.80000","3.56699","4013.71"
"43.00000","3.58392","4025.8"
"43.20000","3.60035","4037.31"
"43.40000","3.61668","4047.67"
"43.60000","3.63371","4058.27"
"43.80000","3.65034","4068.85"
"44.00000","3.66657","4079.19"
"44.20000","3.68381","4088.86"
"44.40000","3.70044","4098.25"
"44.60000","3.71677","4105.65"
"44.80000","3.73340","4111.93"
"45.00000","3.75013","4118.08"
"45.20000","3.76696","4123.64"
"45.40000","3.78329","4127.18"
"45.60000","3.80052","4128.61"
"45.80000","3.81706","4128.74"
"46.00000","3.83328","4125.42"
"46.20000","3.85012","4120.19"
"46.40000","3.86735","4112.09"
"46.60000","3.88338","4093.68"
"46.80000","3.90021","4060.97"
"47.00000","3.91704","3985.23"
"47.07800","3.92359","3258.51"
"47.08600","3.92440","2388"

File: Sequence_54.csv
General : Start date,"11/5/2024 8:42 AM"
General : End date,"11/5/2024 8:43 AM"
Specimen notes : Specimen note 1,"Day 3, red, 230, batch 17, seq 54"
Test : Rate 1,"5.00000",mm/min

Time,Extension,Load
(s),(mm),(N)
"0.00000","0.00000","-0.41791"
"0.20000","0.01028","12.13102"
"0.40000","0.03215","57.48927"
"0.60000","0.04959","91.56476"
"0.80000","0.06662","122.61"
"1.00000","0.08326","151.718"
"1.20000","0.10039","182.83"
"1.40000","0.11692","210.33"
"1.60000","0.13315","238.936"
"1.80000","0.15048","267.92"
"2.00000","0.16691","295.329"
"2.20000","0.18344","323.576"
"2.40000","0.20018","352.075"
"2.60000","0.21701","381.278"
"2.80000","0.23364","409.691"
"3.00000","0.25017","438.636"
"3.20000","0.26690","465.692"
"3.40000","0.28373","493.599"
"3.60000","0.29986","518.836"
"3.80000","0.31679","546.177"
"4.00000","0.33393","573.7"
"4.20000","0.34985","599.753"
"4.40000","0.36679","626.963"
"4.60000","0.38352","654.144"
"4.80000","0.40005","680.21"
"5.00000","0.41688","706.369"
"5.20000","0.43372","731.815"
"5.40000","0.45045","757.229"
"5.60000","0.46678","782.134"
"5.80000","0.48371","806.427"
"6.00000","0.50034","831.95"
"6.20000","0.51697","856.497"
"6.40000","0.53320","881.263"
"6.60000","0.55033","904.099"
"6.80000","0.56686","927.861"
"7.00000","0.58319","949.899"
"7.20000","0.60033","973.513"
"7.40000","0.61655","995.615"
"7.60000","0.63359","1019.28"
"7.80000","0.65002","1040.4"
"8.00000","0.66725","1064.19"
"8.20000","0.68368","1085.28"
"8.40000","0.70001","1106.49"
"8.60000","0.71684","1129.51"
"8.80000","0.73368","1149.24"
"9.00000","0.74990","1169.75"
"9.20000","0.76664","1190.58"
"9.40000","0.78357","1211.85"
"9.60000","0.79990","1233.02"
"9.80000","0.81653","1252.79"
"10.00000","0.83346","1273.68"
"10.20000","0.85050","1294.05"
"10.40000","0.86662","1311.23"
"10.60000","0.88346","1330.43"
"10.80000","0.90049","1347.81"
"11.00000","0.91692","1366.74"
"11.20000","0.93325","1383.39"
"11.40000","0.95008","1401.67"
"11.60000","0.96701","1419.98"
"11.80000","0.98314","1438.77"
"12.00000","1.00028","1457.04"
"12.20000","1.01681","1474.77"
"12.40000","1.03354","1491.24"
"12.60000","1.05007","1508.19"
"12.80000","1.06700","1524.58"
"13.00000","1.08343","1540.29"
"13.20000","1.09976","1556.39"
"13.40000","1.11689","1574.7"
"13.60000","1.13353","1592.18"
"13.80000","1.15006","1607.98"
"14.00000","1.16709","1624.48"
"14.20000","1.18402","1643.17"
"14.40000","1.19995","1658.29"
"14.60000","1.21678","1675.16"
"14.80000","1.23371","1693.47"
"15.00000","1.25034","1709.84"
"15.20000","1.26637","1726.71"
"15.40000","1.28361","1744.66"
"15.60000","1.30044","1761.53"
"15.80000","1.31647","1778.35"
"16.00000","1.33340","1796.5"
"16.20000","1.35043","1813.2"
"16.40000","1.36696","1830.56"
"16.60000","1.38329","1847.08"
"16.80000","1.40043","1864.99"
"17.00000","1.41686","1880.71"
"17.20000","1.43349","1897.95"
"17.40000","1.45002","1915.31"
"17.60000","1.46685","1931.85"
"17.80000","1.48348","1948.29"
"18.00000","1.50001","1965.45"
"18.20000","1.51705","1983.23"
"18.40000","1.53358","1999.37"
"18.60000","1.55000","2015.69"
"18.80000","1.56694","2035.24"
"19.00000","1.58367","2052.91"
"19.20000","1.59990","2070.57"
"19.40000","1.61683","2087.13"
"19.60000","1.63366","2105.48"
"19.80000","1.65019","2121.93"
"20.00000","1.66652","2137.67"
"20.20000","1.68335","2155.21"
"20.40000","1.70019","2171.47"
"20.60000","1.71641","2187.08"
"20.80000","1.73365","2206.17"
"21.00000","1.75028","2223.17"
"21.20000","1.76681","2240.85"
"21.40000","1.78334","2258.49"
"21.60000","1.80038","2277.55"
"21.80000","1.81701","2293.99"
"22.00000","1.83334","2312.27"
"22.20000","1.85007","2328.75"
"22.40000","1.86670","2346.81"
"22.60000","1.88343","2362.25"
"22.80000","1.90006","2381.43"
"23.00000","1.91720","2397.3"
"23.20000","1.93342","2414.62"
"23.40000","1.95016","2430.61"
"23.60000","1.96689","2448.52"
"23.80000","1.98372","2466.42"
"24.00000","1.99995","2481.46"
"24.20000","2.01678","2499.65"
"24.40000","2.03371","2518.8"
"24.60000","2.05014","2534.46"
"24.80000","2.06657","2550.7"
"25.00000","2.08381","2568.77"
"25.20000","2.10044","2585.8"
"25.40000","2.11636","2602.94"
"25.60000","2.13370","2620.63"
"25.80000","2.15023","2638.19"
"26.00000","2.16656","2654.74"
"26.20000","2.18339","2673.02"
"26.40000","2.20022","2689.92"
"26.60000","2.21706","2707.35"
"26.80000","2.23339","2723.8"
"27.00000","2.25052","2741.52"
"27.20000","2.26705","2757.19"
"27.40000","2.28328","2773.76"
"27.60000","2.30021","2792.49"
"27.80000","2.31735","2809.98"
"28.00000","2.33327","2825.58"
"28.20000","2.35021","2843.41"
"28.40000","2.36704","2860.34"
"28.60000","2.38337","2877.97"
"28.80000","2.39980","2895.06"
"29.00000","2.41683","2912.86"
"29.20000","2.43366","2929.94"
"29.40000","2.45009","2946.51"
"29.60000","2.46682","2962.6"
"29.80000","2.48366","2979.94"
"30.00000","2.50019","2996.73"
"30.20000","2.51662","3013.86"
"30.40000","2.53405","3031.93"
"30.60000","2.55028","3048.86"
"30.80000","2.56661","3064.43"
"31.00000","2.58344","3081.86"
"31.20000","2.59997","3098.77"
"31.40000","2.61670","3117.06"
"31.60000","2.63303","3133.7"
"31.80000","2.65027","3150.8"
"32.00000","2.66690","3168.37"
"32.20000","2.68333","3184.15"
"32.40000","2.70026","3201.34"
"32.60000","2.71709","3217.81"
"32.80000","2.73322","3234.09"
"33.00000","2.75015","3250.95"
"33.20000","2.76709","3268.17"
"33.40000","2.78362","3284.52"
"33.60000","2.79985","3301.36"
"33.80000","2.81708","3318.78"
"34.00000","2.83391","3335.6"
"34.20000","2.84994","3351.34"
"34.40000","2.86677","3369.59"
"34.60000","2.88361","3385.03"
"34.80000","2.90003","3401.52"
"35.00000","2.91656","3418.07"
"35.20000","2.93370","3435.62"
"35.40000","2.95033","3452.03"
"35.60000","2.96666","3467.54"
"35.80000","2.98359","3483.85"
"36.00000","3.00042","3501.25"
"36.20000","3.01706","3516.67"
"36.40000","3.03318","3531.99"
"36.60000","3.05052","3548.27"
"36.80000","3.06685","3564.52"
"37.00000","3.08298","3579.62"
"37.20000","3.10011","3596.46"
"37.40000","3.11704","3612.74"
"37.60000","3.13337","3629.15"
"37.80000","3.15031","3644.65"
"38.00000","3.16704","3661.23"
"38.20000","3.18326","3676.63"
"38.40000","3.20010","3692.02"
"38.60000","3.21703","3708.54"
"38.80000","3.23376","3724.36"
"39.00000","3.24989","3740.16"
"39.20000","3.26692","3756.59"
"39.40000","3.28386","3770"
"39.60000","3.29978","3784.24"
"39.80000","3.31672","3799.38"
"40.00000","3.33375","3815.05"
"40.20000","3.35018","3828.82"
"40.40000","3.36651","3843.55"
"40.60000","3.38364","3859.23"
"40.80000","3.40017","3873.15"
"41.00000","3.41680","3887.91"
"41.20000","3.43343","3901.75"
"41.40000","3.45047","3917.23"
"41.60000","3.46690","3930.9"
"41.80000","3.48333","3944.5"
"42.00000","3.50046","3959.3"
"42.20000","3.51679","3973.4"
"42.40000","3.53312","3985.78"
"42.60000","3.55015","3999.49"
"42.80000","3.56689","4013.39"
"43.00000","3.58321","4025.89"
"43.20000","3.60015","4039.16"
"43.40000","3.61708","4050.74"
"43.60000","3.63371","4064.02"
"43.80000","3.64994","4074.67"
"44.00000","3.66707","4086.1"
"44.20000","3.68381","4098.4"
"44.40000","3.69993","4108.2"
"44.60000","3.71697","4118.6"
"44.80000","3.73360","4129.95"
"45.00000","3.75033","4137.99"
"45.20000","3.76666","4146.12"
"45.40000","3.78339","4155.04"
"45.60000","3.80022","4162.01"
"45.80000","3.81685","4169.17"
"46.00000","3.83359","4175.29"
"46.20000","3.85042","4179.42"
"46.40000","3.86665","4183.86"
"46.60000","3.88328","4186.51"
"46.80000","3.90061","4188.01"
"47.00000","3.91684","4186.49"
"47.20000","3.93347","4183.78"
"47.40000","3.95020","4180.76"
"47.60000","3.96693","4174.96"
"47.80000","3.98316","4165.03"
"48.00000","4.00010","4155.8"
"48.20000","4.01693","4144.15"
"48.40000","4.03366","4128.78"
"48.60000","4.04989","4112.22"
"48.80000","4.06712","4094.59"
"49.00000","4.08376","4073.77"
"49.20000","4.09988","4051.94"
"49.40000","4.11702","4026.79"
"49.60000","4.13375","4001.07"
"49.80000","4.15008","3968.26"
"50.00000","4.16671","3929.31"
"50.20000","4.18364","3881.61"
"50.37200","4.19795","3497.48"
"50.38000","4.19876","2726.91"
"50.38400","4.19926","2287.44"

File: Sequence_55.csv
General : Start date,"11/5/2024 8:44 AM"
General : End date,"11/5/2024 8:45 AM"
Specimen notes : Specimen note 1,"Day 3, green, 215, batch 20, seq 55"
Test : Rate 1,"5.00000",mm/min

Time,Extension,Load
(s),(mm),(N)
"0.00000","0.00000","0.57414"
"0.20000","0.00877","7.99882"
"0.40000","0.03165","54.49552"
"0.60000","0.04929","84.48963"
"0.80000","0.06652","115.52"
"1.00000","0.08366","145.299"
"1.20000","0.09968","171.551"
"1.40000","0.11682","199.669"
"1.60000","0.13365","227.667"
"1.80000","0.14988","254.738"
"2.00000","0.16671","281.986"
"2.20000","0.18365","309.567"
"2.40000","0.20018","335.826"
"2.60000","0.21650","362.253"
"2.80000","0.23364","390.679"
"3.00000","0.25027","417.148"
"3.20000","0.26670","443.834"
"3.40000","0.28333","469.58"
"3.60000","0.30026","496.145"
"3.80000","0.31669","521.618"
"4.00000","0.33312","547.224"
"4.20000","0.35036","573.696"
"4.40000","0.36659","598.765"
"4.60000","0.38312","624.826"
"4.80000","0.40015","649.932"
"5.00000","0.41658","674.098"
"5.20000","0.43341","699.525"
"5.40000","0.45014","722.806"
"5.60000","0.46708","746.951"
"5.80000","0.48361","771.427"
"6.00000","0.50004","794.003"
"6.20000","0.51697","818.514"
"6.40000","0.53360","841.645"
"6.60000","0.54973","864.761"
"6.80000","0.56676","887.721"
"7.00000","0.58360","909.724"
"7.20000","0.59992","932.515"
"7.40000","0.61655","953.619"
"7.60000","0.63359","974.948"
"7.80000","0.64982","996.971"
"8.00000","0.66665","1018.77"
"8.20000","0.68338","1039.78"
"8.40000","0.70042","1060.03"
"8.60000","0.71674","1081.16"
"8.80000","0.73317","1102.09"
"9.00000","0.75031","1122.16"
"9.20000","0.76654","1141.87"
"9.40000","0.78317","1160.94"
"9.60000","0.80000","1182.02"
"9.80000","0.81673","1202.03"
"10.00000","0.83286","1220.83"
"10.20000","0.85009","1241.52"
"10.40000","0.86683","1260.52"
"10.60000","0.88346","1278.87"
"10.80000","0.89999","1298.85"
"11.00000","0.91682","1317.54"
"11.20000","0.93365","1334.63"
"11.40000","0.94978","1352.36"
"11.60000","0.96671","1370.65"
"11.80000","0.98365","1388.44"
"12.00000","0.99987","1405.35"
"12.20000","1.01650","1421.62"
"12.40000","1.03344","1438.64"
"12.60000","1.05007","1454.39"
"12.80000","1.06630","1470.65"
"13.00000","1.08343","1488.46"
"13.20000","1.10016","1505.27"
"13.40000","1.11659","1520.74"
"13.60000","1.13312","1537.79"
"13.80000","1.15066","1554.39"
"14.00000","1.16669","1570.2"
"14.20000","1.18332","1586.36"
"14.40000","1.20045","1604.4"
"14.60000","1.21698","1620.53"
"14.80000","1.23321","1635.18"
"15.00000","1.25024","1653.17"
"15.20000","1.26698","1670.19"
"15.40000","1.28310","1686.67"
"15.60000","1.29994","1703.47"
"15.80000","1.31687","1720.65"
"16.00000","1.33350","1737.14"
"16.20000","1.34963","1753.15"
"16.40000","1.36706","1770.02"
"16.60000","1.38370","1787.36"
"16.80000","1.39982","1802.84"
"17.00000","1.41686","1819.2"
"17.20000","1.43349","1835.79"
"17.40000","1.45002","1852.23"
"17.60000","1.46645","1868.02"
"17.80000","1.48368","1884.26"
"18.00000","1.50011","1900.26"
"18.20000","1.51634","1915.09"
"18.40000","1.53337","1931.93"
"18.60000","1.55031","1947.82"
"18.80000","1.56643","1963.65"
"19.00000","1.58337","1979.71"
"19.20000","1.60030","1996.7"
"19.40000","1.61673","2012.73"
"19.60000","1.63336","2029.19"
"19.80000","1.65019","2046.29"
"20.00000","1.66682","2061.44"
"20.20000","1.68315","2077.36"
"20.40000","1.69968","2092.43"
"20.60000","1.71682","2108.59"
"20.80000","1.73325","2124.68"
"21.00000","1.74988","2139.56"
"21.20000","1.76701","2156.85"
"21.40000","1.78344","2171.8"
"21.60000","1.79987","2187.21"
"21.80000","1.81691","2204.92"
"22.00000","1.83344","2220.26"
"22.20000","1.84997","2236"
"22.40000","1.86650","2251.94"
"22.60000","1.88353","2268.21"
"22.80000","1.89986","2283.85"
"23.00000","1.91689","2300.74"
"23.20000","1.93352","2316.89"
"23.40000","1.95026","2333.49"
"23.60000","1.96658","2347.7"
"23.80000","1.98352","2364.5"
"24.00000","2.00015","2379.87"
"24.20000","2.01648","2396.82"
"24.40000","2.03321","2411.43"
"24.60000","2.05004","2428.67"
"24.80000","2.06697","2444.7"
"25.00000","2.08310","2459.8"
"25.20000","2.10014","2476.79"
"25.40000","2.11697","2493.84"
"25.60000","2.13330","2509.34"
"25.80000","2.14993","2525.13"
"26.00000","2.16686","2541.16"
"26.20000","2.18339","2557.27"
"26.40000","2.19972","2572.95"
"26.60000","2.21675","2589.49"
"26.80000","2.23339","2605.74"
"27.00000","2.25012","2621.66"
"27.20000","2.26665","2637.48"
"27.40000","2.28378","2653.75"
"27.60000","2.30021","2670.43"
"27.80000","2.31644","2684.82"
"28.00000","2.33378","2702.11"
"28.20000","2.35021","2717.75"
"28.40000","2.36653","2732.9"
"28.60000","2.38357","2748.88"
"28.80000","2.40020","2764.42"
"29.00000","2.41633","2779.22"
"29.20000","2.43336","2794.63"
"29.40000","2.45019","2810.59"
"29.60000","2.46692","2826.12"
"29.80000","2.48305","2840.65"
"30.00000","2.50029","2857.38"
"30.20000","2.51712","2872.46"
"30.40000","2.53304","2888.31"
"30.60000","2.55018","2903.83"
"30.80000","2.56711","2918.37"
"31.00000","2.58334","2933.86"
"31.20000","2.59967","2947.84"
"31.40000","2.61670","2962.11"
"31.60000","2.63313","2977.43"
"31.80000","2.64976","2992.69"
"32.00000","2.66660","3008.07"
"32.20000","2.68353","3022.48"
"32.40000","2.69996","3038.83"
"32.60000","2.71669","3053.85"
"32.80000","2.73393","3067.73"
"33.00000","2.74995","3083.25"
"33.20000","2.76668","3097.93"
"33.40000","2.78352","3113.82"
"33.60000","2.80025","3128.42"
"33.80000","2.81648","3142.65"
"34.00000","2.83341","3157.57"
"34.20000","2.85034","3172.18"
"34.40000","2.86677","3187.19"
"34.60000","2.88310","3201.92"
"34.80000","2.90024","3216.62"
"35.00000","2.91687","3230.89"
"35.20000","2.93309","3245.58"
"35.40000","2.95023","3261.71"
"35.60000","2.96686","3275.98"
"35.80000","2.98329","3291.06"
"36.00000","3.00002","3306.16"
"36.20000","3.01685","3320.31"
"36.40000","3.03369","3333.92"
"36.60000","3.04991","3349.53"
"36.80000","3.06685","3365.06"
"37.00000","3.08358","3378.61"
"37.20000","3.09981","3393.09"
"37.40000","3.11654","3407.67"
"37.60000","3.13367","3423.07"
"37.80000","3.15000","3437.7"
"38.00000","3.16663","3451.07"
"38.20000","3.18367","3466.01"
"38.40000","3.20010","3479.83"
"38.60000","3.21653","3493.74"
"38.80000","3.23346","3509.37"
"39.00000","3.25039","3523.25"
"39.20000","3.26672","3537.37"
"39.40000","3.28325","3550.96"
"39.60000","3.30029","3565.61"
"39.80000","3.31682","3578.47"
"40.00000","3.33294","3591.77"
"40.20000","3.35018","3606.81"
"40.40000","3.36691","3618.89"
"40.60000","3.38324","3632.15"
"40.80000","3.40007","3647.04"
"41.00000","3.41690","3660.14"
"41.20000","3.43364","3674.37"
"41.40000","3.44986","3687.43"
"41.60000","3.46700","3702.28"
"41.80000","3.48363","3714.28"
"42.00000","3.49976","3726.99"
"42.20000","3.51679","3741.19"
"42.40000","3.53372","3753.02"
"42.60000","3.54955","3764.79"
"42.80000","3.56658","3778.85"
"43.00000","3.58352","3791.29"
"43.20000","3.60005","3803.11"
"43.40000","3.61658","3815.38"
"43.60000","3.63351","3826.75"
"43.80000","3.65054","3840.34"
"44.00000","3.66667","3850.57"
"44.20000","3.68340","3862.92"
"44.40000","3.70034","3875.41"
"44.60000","3.71666","3885.55"
"44.80000","3.73330","3898.73"
"45.00000","3.75023","3909.65"
"45.20000","3.76676","3920.37"
"45.40000","3.78309","3930.37"
"45.60000","3.80012","3941.24"
"45.80000","3.81665","3950.97"
"46.00000","3.83348","3960.22"
"46.20000","3.84991","3969.99"
"46.40000","3.86715","3981.38"
"46.60000","3.88348","3988.66"
"46.80000","3.89981","3996.83"
"47.00000","3.91694","4004.28"
"47.20000","3.93357","4011.81"
"47.40000","3.94990","4018.51"
"47.60000","3.96673","4023.86"
"47.80000","3.98357","4028.85"
"48.00000","3.99989","4033.61"
"48.20000","4.01663","4036.9"
"48.40000","4.03336","4040.04"
"48.60000","4.05029","4040.9"
"48.80000","4.06652","4039.38"
"49.00000","4.08355","4039.01"
"49.20000","4.10039","4034.87"
"49.40000","4.11661","4030.13"
"49.60000","4.13324","4022.52"
"49.80000","4.15028","4012.36"
"50.00000","4.16671","3998.28"
"50.20000","4.18314","3978.57"
"50.40000","4.20017","3950.83"
"50.60000","4.21680","3900.76"
"50.76600","4.23071","3530.07"
"50.77400","4.23142","2790.19"
"50.78000","4.23212","2138.89"