Folder: 3D-Filament-Dyes/Data_Processing/Tensile-Data (part 15)

File: Sequence_44.csv
General : Start date,"10/29/2024 10:52 AM"
General : End date,"10/29/2024 10:53 AM"
Specimen notes : Specimen note 1,"Day 2, red, 230, batch 5, seq 44"
Test : Rate 1,"5.00000",mm/min

Time,Extension,Load
(s),(mm),(N)
"0.00000","0.00000","0.39360"
"0.20000","0.01119","13.76915"
"0.40000","0.03256","56.15548"
"0.60000","0.04949","83.28189"
"0.80000","0.06683","112.09"
"1.00000","0.08346","140.362"
"1.20000","0.09999","167.945"
"1.40000","0.11702","195.359"
"1.60000","0.13375","222.743"
"1.80000","0.15028","250.406"
"2.00000","0.16671","276.468"
"2.20000","0.18385","303.446"
"2.40000","0.20018","329.702"
"2.60000","0.21661","355.881"
"2.80000","0.23374","383.711"
"3.00000","0.25057","408.68"
"3.20000","0.26660","434.285"
"3.40000","0.28353","459.07"
"3.60000","0.30016","483.767"
"3.80000","0.31669","508.253"
"4.00000","0.33332","531.808"
"4.20000","0.35026","557.119"
"4.40000","0.36689","578.774"
"4.60000","0.38332","602.268"
"4.80000","0.40055","624.943"
"5.00000","0.41729","645.907"
"5.20000","0.43361","667.033"
"5.40000","0.44994","685.817"
"5.60000","0.46708","707.688"
"5.80000","0.48361","727.422"
"6.00000","0.49984","746.35"
"6.20000","0.51687","767.865"
"6.40000","0.53370","785.843"
"6.60000","0.55003","804.581"
"6.80000","0.56676","824.284"
"7.00000","0.58370","843.773"
"7.20000","0.60023","862.509"
"7.40000","0.61666","880.362"
"7.60000","0.63369","900.332"
"7.80000","0.65042","918.358"
"8.00000","0.66655","934.175"
"8.20000","0.68368","951.668"
"8.40000","0.70031","966.88"
"8.60000","0.71674","983.047"
"8.80000","0.73317","999.155"
"9.00000","0.75031","1015.78"
"9.20000","0.76684","1031.94"
"9.40000","0.78286","1046.5"
"9.60000","0.80040","1062.51"
"9.80000","0.81653","1078.25"
"10.00000","0.83366","1094.1"
"10.20000","0.85019","1109.5"
"10.40000","0.86723","1125.44"
"10.60000","0.88356","1140.93"
"10.80000","0.89999","1155.06"
"11.00000","0.91692","1170.61"
"11.20000","0.93385","1185.74"
"11.40000","0.94988","1200.93"
"11.60000","0.96681","1215.84"
"11.80000","0.98375","1230.56"
"12.00000","0.99987","1244.6"
"12.20000","1.01660","1257.93"
"12.40000","1.03374","1273.05"
"12.60000","1.05017","1286.42"
"12.80000","1.06660","1299.81"
"13.00000","1.08343","1315.45"
"13.20000","1.10057","1331.57"
"13.40000","1.11669","1345.06"
"13.60000","1.13363","1360.08"
"13.80000","1.15036","1373.94"
"14.00000","1.16689","1390.23"
"14.20000","1.18312","1404.53"
"14.40000","1.20065","1419.82"
"14.60000","1.21678","1434.9"
"14.80000","1.23321","1449.23"
"15.00000","1.25014","1463.72"
"15.20000","1.26677","1479.33"
"15.40000","1.28330","1493.41"
"15.60000","1.30004","1508.55"
"15.80000","1.31707","1523.16"
"16.00000","1.33380","1538.33"
"16.20000","1.34983","1552.85"
"16.40000","1.36706","1569.47"
"16.60000","1.38380","1584.08"
"16.80000","1.39992","1598.75"
"17.00000","1.41676","1614.45"
"17.20000","1.43369","1630.08"
"17.40000","1.45002","1645.57"
"17.60000","1.46665","1659.31"
"17.80000","1.48338","1675.24"
"18.00000","1.50062","1690.6"
"18.20000","1.51644","1704.7"
"18.40000","1.53358","1720.81"
"18.60000","1.55041","1735.71"
"18.80000","1.56694","1751.06"
"19.00000","1.58327","1765.66"
"19.20000","1.60060","1781.63"
"19.40000","1.61683","1795.71"
"19.60000","1.63336","1811.1"
"19.80000","1.65019","1827.06"
"20.00000","1.66703","1841.99"
"20.20000","1.68325","1856.06"
"20.40000","1.69978","1872.83"
"20.60000","1.71702","1888.36"
"20.80000","1.73355","1903.25"
"21.00000","1.74988","1917.99"
"21.20000","1.76732","1934.98"
"21.40000","1.78374","1949.81"
"21.60000","1.80007","1964.21"
"21.80000","1.81691","1979.54"
"22.00000","1.83394","1995.18"
"22.20000","1.85017","2010.39"
"22.40000","1.86670","2026.37"
"22.60000","1.88343","2041.27"
"22.80000","1.90046","2057.18"
"23.00000","1.91639","2073.12"
"23.20000","1.93373","2088.56"
"23.40000","1.95036","2104.39"
"23.60000","1.96638","2119.8"
"23.80000","1.98342","2134.14"
"24.00000","2.00035","2150.39"
"24.20000","2.01698","2166.14"
"24.40000","2.03351","2181.84"
"24.60000","2.05065","2197.54"
"24.80000","2.06708","2214.08"
"25.00000","2.08320","2228.51"
"25.20000","2.10024","2244.1"
"25.40000","2.11707","2260.6"
"25.60000","2.13330","2276.74"
"25.80000","2.14983","2291.06"
"26.00000","2.16696","2307.92"
"26.20000","2.18339","2322.98"
"26.40000","2.20002","2338.36"
"26.60000","2.21716","2354.89"
"26.80000","2.23379","2370.4"
"27.00000","2.25002","2385.67"
"27.20000","2.26685","2401.42"
"27.40000","2.28348","2417.78"
"27.60000","2.30041","2434.65"
"27.80000","2.31654","2449.5"
"28.00000","2.33368","2465.86"
"28.20000","2.35021","2482.42"
"28.40000","2.36653","2497.85"
"28.60000","2.38357","2513.34"
"28.80000","2.40030","2528.98"
"29.00000","2.41683","2543.92"
"29.20000","2.43346","2560.35"
"29.40000","2.45029","2575.12"
"29.60000","2.46703","2591.04"
"29.80000","2.48335","2606.49"
"30.00000","2.50019","2623.08"
"30.20000","2.51702","2639.01"
"30.40000","2.53335","2654.67"
"30.60000","2.55008","2670.85"
"30.80000","2.56701","2687.56"
"31.00000","2.58344","2702.46"
"31.20000","2.59997","2718.29"
"31.40000","2.61691","2734.56"
"31.60000","2.63364","2751.23"
"31.80000","2.65007","2765.74"
"32.00000","2.66680","2782.16"
"32.20000","2.68393","2798.43"
"32.40000","2.70036","2813.31"
"32.60000","2.71669","2828.85"
"32.80000","2.73383","2845.47"
"33.00000","2.75036","2860.87"
"33.20000","2.76658","2876"
"33.40000","2.78372","2892.08"
"33.60000","2.80005","2908.8"
"33.80000","2.81658","2924.03"
"34.00000","2.83311","2939.05"
"34.20000","2.85024","2954.19"
"34.40000","2.86687","2969.45"
"34.60000","2.88330","2985.83"
"34.80000","2.90044","3001.85"
"35.00000","2.91707","3016.8"
"35.20000","2.93320","3031.4"
"35.40000","2.95043","3047.8"
"35.60000","2.96726","3063.89"
"35.80000","2.98329","3080.19"
"36.00000","3.00012","3093.96"
"36.20000","3.01695","3110.68"
"36.40000","3.03369","3126.5"
"36.60000","3.04971","3140.92"
"36.80000","3.06655","3156.31"
"37.00000","3.08348","3172.17"
"37.20000","3.09991","3187.39"
"37.40000","3.11684","3202.46"
"37.60000","3.13367","3218.68"
"37.80000","3.15031","3232.82"
"38.00000","3.16653","3247.78"
"38.20000","3.18407","3263.44"
"38.40000","3.20000","3278.95"
"38.60000","3.21693","3295.25"
"38.80000","3.23376","3310.11"
"39.00000","3.25039","3325.17"
"39.20000","3.26662","3340.11"
"39.40000","3.28325","3354.57"
"39.60000","3.30049","3370.24"
"39.80000","3.31702","3385.89"
"40.00000","3.33314","3399.3"
"40.20000","3.35028","3414.71"
"40.40000","3.36691","3429.94"
"40.60000","3.38334","3445.14"
"40.80000","3.40007","3460.24"
"41.00000","3.41711","3475.42"
"41.20000","3.43364","3491.13"
"41.40000","3.44996","3504.77"
"41.60000","3.46670","3519.05"
"41.80000","3.48383","3535.38"
"42.00000","3.49996","3548.07"
"42.20000","3.51689","3563.23"
"42.40000","3.53352","3578.52"
"42.60000","3.55005","3592.22"
"42.80000","3.56648","3605.96"
"43.00000","3.58382","3621.14"
"43.20000","3.60015","3635.18"
"43.40000","3.61678","3649.23"
"43.60000","3.63361","3663.63"
"43.80000","3.65044","3677.76"
"44.00000","3.66657","3691.28"
"44.20000","3.68350","3705.37"
"44.40000","3.70044","3718.84"
"44.60000","3.71687","3732.28"
"44.80000","3.73309","3745.66"
"45.00000","3.75043","3759.41"
"45.20000","3.76706","3773.25"
"45.40000","3.78339","3786.01"
"45.60000","3.80022","3798.42"
"45.80000","3.81685","3811.44"
"46.00000","3.83348","3825.46"
"46.20000","3.84991","3836.98"
"46.40000","3.86695","3850.63"
"46.60000","3.88398","3862.85"
"46.80000","3.89991","3874.32"
"47.00000","3.91694","3886.86"
"47.20000","3.93357","3897.95"
"47.40000","3.95000","3909.79"
"47.60000","3.96673","3921.49"
"47.80000","3.98377","3932.92"
"48.00000","3.99999","3942.8"
"48.20000","4.01663","3954.29"
"48.40000","4.03376","3965.21"
"48.60000","4.05039","3974.83"
"48.80000","4.06672","3984.95"
"49.00000","4.08345","3994.55"
"49.20000","4.10039","4004.26"
"49.40000","4.11692","4013.5"
"49.60000","4.13324","4021.24"
"49.80000","4.15078","4028.84"
"50.00000","4.16681","4036.34"
"50.20000","4.18324","4043.02"
"50.40000","4.20027","4050.2"
"50.60000","4.21700","4055.63"
"50.80000","4.23333","4060.12"
"51.00000","4.25006","4064.24"
"51.20000","4.26690","4067.46"
"51.40000","4.28393","4070.6"
"51.60000","4.30006","4071"
"51.80000","4.31719","4071.72"
"52.00000","4.33372","4069.83"
"52.20000","4.35015","4066.14"
"52.40000","4.36678","4059.67"
"52.60000","4.38341","4051.44"
"52.80000","4.39994","4040.94"
"53.00000","4.41657","4025.91"
"53.20000","4.43351","4006.69"
"53.40000","4.45034","3980.65"
"53.60000","4.46687","3941.27"
"53.80000","4.48360","3875.93"
"53.96400","4.49771","3484.66"
"53.97200","4.49852","2749.9"
"53.97800","4.49913","2107.02"

File: Sequence_45.csv
General : Start date,"10/29/2024 10:54 AM"
General : End date,"10/29/2024 10:55 AM"
Specimen notes : Specimen note 1,"Day 2, green, 215, batch 13, seq 45"
Test : Rate 1,"5.00000",mm/min

Time,Extension,Load
(s),(mm),(N)
"0.00000","0.00010","0.16773"
"0.20000","0.01260","14.33385"
"0.40000","0.03457","55.95782"
"0.60000","0.05171","83.85130"
"0.80000","0.06904","112.62"
"1.00000","0.08567","140.085"
"1.20000","0.10220","165.739"
"1.40000","0.11924","194.009"
"1.60000","0.13597","221.037"
"1.80000","0.15260","246.339"
"2.00000","0.16883","271.661"
"2.20000","0.18596","298.641"
"2.40000","0.20249","324.23"
"2.60000","0.21882","348.134"
"2.80000","0.23606","375.062"
"3.00000","0.25279","401.584"
"3.20000","0.26882","424.737"
"3.40000","0.28575","448.809"
"3.60000","0.30238","474.035"
"3.80000","0.31891","497.295"
"4.00000","0.33554","520.278"
"4.20000","0.35237","544.808"
"4.40000","0.36921","567.057"
"4.60000","0.38564","589.878"
"4.80000","0.40257","612.767"
"5.00000","0.41950","635.479"
"5.20000","0.43593","656.757"
"5.40000","0.45226","676.458"
"5.60000","0.46930","698.05"
"5.80000","0.48583","718.186"
"6.00000","0.50205","738.965"
"6.20000","0.51919","760.353"
"6.40000","0.53592","780.81"
"6.60000","0.55225","800.114"
"6.80000","0.56888","819.818"
"7.00000","0.58601","839.594"
"7.20000","0.60244","859.618"
"7.40000","0.61887","878.993"
"7.60000","0.63611","899.755"
"7.80000","0.65264","918.414"
"8.00000","0.66877","936.589"
"8.20000","0.68590","955.747"
"8.40000","0.70253","975.31"
"8.60000","0.71896","993.447"
"8.80000","0.73539","1011.75"
"9.00000","0.75242","1030.2"
"9.20000","0.76906","1049.04"
"9.40000","0.78508","1066.05"
"9.60000","0.80252","1084.1"
"9.80000","0.81895","1100.75"
"10.00000","0.83588","1118.98"
"10.20000","0.85251","1136.75"
"10.40000","0.86935","1153.23"
"10.60000","0.88577","1169.65"
"10.80000","0.90230","1183.98"
"11.00000","0.91934","1200.69"
"11.20000","0.93597","1217.65"
"11.40000","0.95220","1232.55"
"11.60000","0.96903","1247.5"
"11.80000","0.98606","1262.09"
"12.00000","1.00199","1277.43"
"12.20000","1.01882","1292.18"
"12.40000","1.03606","1306.14"
"12.60000","1.05249","1321.3"
"12.80000","1.06871","1336.01"
"13.00000","1.08565","1352.38"
"13.20000","1.10278","1368.58"
"13.40000","1.11901","1382.98"
"13.60000","1.13574","1398.82"
"13.80000","1.15247","1414.08"
"14.00000","1.16931","1429.13"
"14.20000","1.18543","1444.25"
"14.40000","1.20277","1460.1"
"14.60000","1.21910","1475.8"
"14.80000","1.23543","1490.22"
"15.00000","1.25236","1505.99"
"15.20000","1.26899","1520.71"
"15.40000","1.28552","1534.52"
"15.60000","1.30225","1549.94"
"15.80000","1.31939","1565.08"
"16.00000","1.33612","1580.36"
"16.20000","1.35215","1594.06"
"16.40000","1.36918","1609.45"
"16.60000","1.38601","1623.51"
"16.80000","1.40224","1637.23"
"17.00000","1.41897","1652.21"
"17.20000","1.43601","1667.01"
"17.40000","1.45223","1682.16"
"17.60000","1.46897","1695.73"
"17.80000","1.48560","1708.96"
"18.00000","1.50273","1723.54"
"18.20000","1.51866","1736.06"
"18.40000","1.53579","1751.63"
"18.60000","1.55273","1766.13"
"18.80000","1.56916","1780.53"
"19.00000","1.58548","1794.83"
"19.20000","1.60282","1810.02"
"19.40000","1.61915","1823.62"
"19.60000","1.63558","1837.69"
"19.80000","1.65251","1852.85"
"20.00000","1.66944","1865.82"
"20.20000","1.68537","1878.9"
"20.40000","1.70220","1894.47"
"20.60000","1.71944","1908.31"
"20.80000","1.73597","1921.72"
"21.00000","1.75210","1935.98"
"21.20000","1.76943","1949.94"
"21.40000","1.78596","1963.42"
"21.60000","1.80219","1976.4"
"21.80000","1.81912","1990.59"
"22.00000","1.83626","2003.53"
"22.20000","1.85239","2016.13"
"22.40000","1.86892","2031.47"
"22.60000","1.88585","2045.41"
"22.80000","1.90258","2059.05"
"23.00000","1.91871","2072.35"
"23.20000","1.93584","2087.1"
"23.40000","1.95257","2100.9"
"23.60000","1.96880","2114.93"
"23.80000","1.98563","2128.79"
"24.00000","2.00277","2142.55"
"24.20000","2.01930","2156.36"
"24.40000","2.03573","2170.22"
"24.60000","2.05276","2185.2"
"24.80000","2.06919","2199.5"
"25.00000","2.08552","2213.07"
"25.20000","2.10235","2227.54"
"25.40000","2.11929","2241.36"
"25.60000","2.13562","2256.47"
"25.80000","2.15215","2269.5"
"26.00000","2.16908","2284.92"
"26.20000","2.18561","2299.15"
"26.40000","2.20224","2312.96"
"26.60000","2.21927","2327.97"
"26.80000","2.23621","2341.4"
"27.00000","2.25223","2355.97"
"27.20000","2.26927","2370.27"
"27.40000","2.28570","2385.62"
"27.60000","2.30273","2400.12"
"27.80000","2.31876","2412.91"
"28.00000","2.33589","2428.44"
"28.20000","2.35242","2443.36"
"28.40000","2.36875","2455.97"
"28.60000","2.38579","2471.13"
"28.80000","2.40252","2486.19"
"29.00000","2.41905","2500.34"
"29.20000","2.43568","2515.16"
"29.40000","2.45251","2529.1"
"29.60000","2.46924","2543.85"
"29.80000","2.48557","2557.95"
"30.00000","2.50240","2573.67"
"30.20000","2.51934","2587.55"
"30.40000","2.53577","2601.87"
"30.60000","2.55230","2616.9"
"30.80000","2.56933","2631.25"
"31.00000","2.58556","2645.35"
"31.20000","2.60219","2660.08"
"31.40000","2.61912","2675"
"31.60000","2.63596","2689.82"
"31.80000","2.65228","2704"
"32.00000","2.66902","2719.22"
"32.20000","2.68615","2733.53"
"32.40000","2.70258","2747.63"
"32.60000","2.71901","2761.61"
"32.80000","2.73604","2776.37"
"33.00000","2.75247","2791.21"
"33.20000","2.76890","2805.75"
"33.40000","2.78604","2820.58"
"33.60000","2.80247","2835.62"
"33.80000","2.81910","2849.45"
"34.00000","2.83553","2863.52"
"34.20000","2.85246","2878.15"
"34.40000","2.86889","2891.89"
"34.60000","2.88552","2906.48"
"34.80000","2.90255","2921.78"
"35.00000","2.91939","2935.15"
"35.20000","2.93541","2949.42"
"35.40000","2.95255","2963.89"
"35.60000","2.96948","2977.28"
"35.80000","2.98551","2992.08"
"36.00000","3.00234","3006.98"
"36.20000","3.01937","3020.69"
"36.40000","3.03601","3035.59"
"36.60000","3.05193","3048.62"
"36.80000","3.06907","3064.47"
"37.00000","3.08570","3077.37"
"37.20000","3.10223","3092.78"
"37.40000","3.11906","3107.22"
"37.60000","3.13599","3121.41"
"37.80000","3.15262","3135.73"
"38.00000","3.16885","3149.68"
"38.20000","3.18619","3163.16"
"38.40000","3.20231","3176.56"
"38.60000","3.21905","3190.56"
"38.80000","3.23588","3204.95"
"39.00000","3.25261","3217.91"
"39.20000","3.26894","3232.88"
"39.40000","3.28527","3246.03"
"39.60000","3.30260","3260.19"
"39.80000","3.31924","3273.98"
"40.00000","3.33546","3288.07"
"40.20000","3.35260","3302.58"
"40.40000","3.36923","3315.26"
"40.60000","3.38556","3330.04"
"40.80000","3.40239","3344.32"
"41.00000","3.41922","3357.29"
"41.20000","3.43585","3370.95"
"41.40000","3.45238","3384.73"
"41.60000","3.46881","3397.84"
"41.80000","3.48615","3411.76"
"42.00000","3.50218","3424.5"
"42.20000","3.51921","3439.17"
"42.40000","3.53584","3451.83"
"42.60000","3.55247","3464.95"
"42.80000","3.56880","3478.44"
"43.00000","3.58614","3493.54"
"43.20000","3.60226","3505.78"
"43.40000","3.61900","3519.7"
"43.60000","3.63603","3532.91"
"43.80000","3.65266","3545.83"
"44.00000","3.66889","3558.34"
"44.20000","3.68562","3571.52"
"44.40000","3.70286","3586.19"
"44.60000","3.71918","3598.48"
"44.80000","3.73521","3610.49"
"45.00000","3.75265","3624.59"
"45.20000","3.76938","3637.14"
"45.40000","3.78551","3650.27"
"45.60000","3.80244","3662.86"
"45.80000","3.81917","3677.2"
"46.00000","3.83570","3688.94"
"46.20000","3.85233","3702.22"
"46.40000","3.86906","3714.19"
"46.60000","3.88600","3727.19"
"46.80000","3.90202","3738.85"
"47.00000","3.91926","3751.54"
"47.20000","3.93589","3763.18"
"47.40000","3.95242","3775.44"
"47.60000","3.96885","3786.03"
"47.80000","3.98609","3798.82"
"48.00000","4.00231","3810.54"
"48.20000","4.01894","3822.08"
"48.40000","4.03608","3833.54"
"48.60000","4.05271","3844.65"
"48.80000","4.06894","3855.56"
"49.00000","4.08567","3866.26"
"49.20000","4.10270","3877.63"
"49.40000","4.11923","3887.6"
"49.60000","4.13546","3898.43"
"49.80000","4.15300","3909.56"
"50.00000","4.16903","3919.34"
"50.20000","4.18556","3928.01"
"50.40000","4.20249","3937.59"
"50.60000","4.21922","3947.39"
"50.80000","4.23555","3956.58"
"51.00000","4.25228","3964.7"
"51.20000","4.26911","3973.96"
"51.40000","4.28605","3981"
"51.60000","4.30217","3988.69"
"51.80000","4.31941","3995.8"
"52.00000","4.33604","4002.08"
"52.20000","4.35247","4008.01"
"52.40000","4.36900","4012.29"
"52.60000","4.38593","4016.52"
"52.80000","4.40216","4020.01"
"53.00000","4.41889","4022.9"
"53.20000","4.43583","4024.92"
"53.40000","4.45246","4025.83"
"53.60000","4.46889","4025.05"
"53.80000","4.48572","4023.13"
"54.00000","4.50285","4022.57"
"54.20000","4.51898","4018.35"
"54.40000","4.53551","4012.7"
"54.60000","4.55285","4005.94"
"54.80000","4.56908","3997.36"
"55.00000","4.58571","3985.8"
"55.20000","4.60244","3971.57"
"55.40000","4.61947","3954.61"
"55.60000","4.63550","3929.74"
"55.80000","4.65233","3892.4"
"56.00000","4.66906","3780.24"
"56.02400","4.67118","3187.41"
"56.03200","4.67209","2362.51"
"56.03400","4.67229","2149.05"

File: Sequence_46.csv
General : Start date,"10/29/2024 10:57 AM"
General : End date,"10/29/2024 10:58 AM"
Specimen notes : Specimen note 1,"Day 2, green, 230, batch 3, seq 46"
Test : Rate 1,"5.00000",mm/min

Time,Extension,Load
(s),(mm),(N)
"0.00000","0.00000","-0.31089"
"0.20000","0.00716","-0.03430"
"0.40000","0.02913","34.44313"
"0.60000","0.04828","70.73913"
"0.80000","0.06652","100.133"
"1.00000","0.08295","126.507"
"1.20000","0.10029","153.446"
"1.40000","0.11682","179.865"
"1.60000","0.13325","205.831"
"1.80000","0.14998","232.629"
"2.00000","0.16712","259.405"
"2.20000","0.18365","284.999"
"2.40000","0.19987","310.703"
"2.60000","0.21701","337.13"
"2.80000","0.23374","363.132"
"3.00000","0.24987","387.754"
"3.20000","0.26690","413.771"
"3.40000","0.28383","439.234"
"3.60000","0.29996","463.678"
"3.80000","0.31669","487.085"
"4.00000","0.33353","512.539"
"4.20000","0.34996","537.548"
"4.40000","0.36649","560.444"
"4.60000","0.38362","586.794"
"4.80000","0.40015","610.441"
"5.00000","0.41678","634.207"
"5.20000","0.43341","656.676"
"5.40000","0.45055","680.382"
"5.60000","0.46708","702.077"
"5.80000","0.48320","723.229"
"6.00000","0.50034","745.627"
"6.20000","0.51687","768.361"
"6.40000","0.53320","788.382"
"6.60000","0.55003","809.927"
"6.80000","0.56696","831.887"
"7.00000","0.58339","851.492"
"7.20000","0.59992","871.622"
"7.40000","0.61696","891.954"
"7.60000","0.63359","911.123"
"7.80000","0.65012","930.608"
"8.00000","0.66685","950.518"
"8.20000","0.68368","970.288"
"8.40000","0.69991","988.543"
"8.60000","0.71684","1008.97"
"8.80000","0.73327","1027.88"
"9.00000","0.75021","1046.35"
"9.20000","0.76643","1064.61"
"9.40000","0.78337","1081.79"
"9.60000","0.80010","1097.09"
"9.80000","0.81623","1112.83"
"10.00000","0.83346","1130.66"
"10.20000","0.84999","1145.97"
"10.40000","0.86693","1161.65"
"10.60000","0.88336","1177.9"
"10.80000","0.90039","1195.63"
"11.00000","0.91712","1211.16"
"11.20000","0.93325","1226.22"
"11.40000","0.95018","1242.31"
"11.60000","0.96711","1258.23"
"11.80000","0.98334","1273.99"
"12.00000","0.99977","1289.72"
"12.20000","1.01711","1306.64"
"12.40000","1.03344","1321.74"
"12.60000","1.04966","1337.15"
"12.80000","1.06680","1352.81"
"13.00000","1.08363","1367.09"
"13.20000","1.09986","1381.16"
"13.40000","1.11659","1395.82"
"13.60000","1.13373","1411.66"
"13.80000","1.15016","1426.72"
"14.00000","1.16659","1441.58"
"14.20000","1.18372","1457.33"
"14.40000","1.20035","1470.37"
"14.60000","1.21638","1486.62"
"14.80000","1.23371","1501.19"
"15.00000","1.25014","1515.29"
"15.20000","1.26647","1530.33"
"15.40000","1.28320","1545.65"
"15.60000","1.30014","1560.03"
"15.80000","1.31667","1575.5"
"16.00000","1.33330","1591.37"
"16.20000","1.35033","1606.42"
"16.40000","1.36706","1620.01"
"16.60000","1.38319","1634.97"
"16.80000","1.40002","1650.29"
"17.00000","1.41716","1664.55"
"17.20000","1.43329","1679.8"
"17.40000","1.44992","1693.79"
"17.60000","1.46705","1709.6"
"17.80000","1.48358","1724.13"
"18.00000","1.49981","1737.53"
"18.20000","1.51684","1754.2"
"18.40000","1.53368","1769.16"
"18.60000","1.54990","1783.64"
"18.80000","1.56653","1798.25"
"19.00000","1.58367","1813.33"
"19.20000","1.60020","1828.88"
"19.40000","1.61653","1842.62"
"19.60000","1.63386","1859.03"
"19.80000","1.65009","1872.83"
"20.00000","1.66682","1888.12"
"20.20000","1.68346","1902.81"
"20.40000","1.70029","1917.52"
"20.60000","1.71662","1931.78"
"20.80000","1.73315","1946.55"
"21.00000","1.75028","1961.74"
"21.20000","1.76701","1977.23"
"21.40000","1.78314","1990.17"
"21.60000","1.80038","2006.53"
"21.80000","1.81701","2021.15"
"22.00000","1.83334","2035.9"
"22.20000","1.84997","2051.58"
"22.40000","1.86700","2066.5"
"22.60000","1.88363","2080.97"
"22.80000","1.89986","2095.4"
"23.00000","1.91669","2110.1"
"23.20000","1.93383","2124.98"
"23.40000","1.94995","2140.08"
"23.60000","1.96669","2155.26"
"23.80000","1.98342","2169.92"
"24.00000","2.00015","2185.46"
"24.20000","2.01648","2198.46"
"24.40000","2.03371","2213.83"
"24.60000","2.05024","2229.49"
"24.80000","2.06677","2243.81"
"25.00000","2.08381","2258.86"
"25.20000","2.10034","2274.37"
"25.40000","2.11657","2287.83"
"25.60000","2.13299","2302.32"
"25.80000","2.15033","2317.07"
"26.00000","2.16686","2331.28"
"26.20000","2.18289","2344.78"
"26.40000","2.20012","2361.18"
"26.60000","2.21696","2375.13"
"26.80000","2.23318","2390.03"
"27.00000","2.25022","2405.43"
"27.20000","2.26695","2420.07"
"27.40000","2.28358","2435.17"
"27.60000","2.30011","2450.3"
"27.80000","2.31694","2465.08"
"28.00000","2.33388","2480.05"
"28.20000","2.34970","2495.02"
"28.40000","2.36694","2509.4"
"28.60000","2.38357","2524.9"
"28.80000","2.39980","2539.01"
"29.00000","2.41653","2552.43"
"29.20000","2.43376","2567.49"
"29.40000","2.45009","2582.42"
"29.60000","2.46672","2597.28"
"29.80000","2.48356","2611.29"
"30.00000","2.50029","2626.05"
"30.20000","2.51672","2640.71"
"30.40000","2.53345","2656.42"
"30.60000","2.55028","2670.86"
"30.80000","2.56651","2685.55"
"31.00000","2.58314","2699.28"
"31.20000","2.60058","2715.15"
"31.40000","2.61680","2728.73"
"31.60000","2.63313","2743.64"
"31.80000","2.65007","2759.16"
"32.00000","2.66680","2773.01"
"32.20000","2.68353","2788.73"
"32.40000","2.70016","2802.2"
"32.60000","2.71689","2817.43"
"32.80000","2.73393","2831.92"
"33.00000","2.74995","2846.58"
"33.20000","2.76719","2861.9"
"33.40000","2.78332","2875.29"
"33.60000","2.80015","2890.7"
"33.80000","2.81688","2905.08"
"34.00000","2.83361","2919.75"
"34.20000","2.84994","2934.43"
"34.40000","2.86647","2947.3"
"34.60000","2.88340","2962.59"
"34.80000","2.90014","2977.52"
"35.00000","2.91677","2990.83"
"35.20000","2.93350","3005.12"
"35.40000","2.95043","3019.58"
"35.60000","2.96656","3034.49"
"35.80000","2.98339","3048.94"
"36.00000","3.00053","3063.93"
"36.20000","3.01685","3077.69"
"36.40000","3.03328","3092.13"
"36.60000","3.05012","3106.1"
"36.80000","3.06715","3120.83"
"37.00000","3.08298","3134.48"
"37.20000","3.10001","3148.97"
"37.40000","3.11644","3162.17"
"37.60000","3.13337","3177.28"
"37.80000","3.14960","3189.84"
"38.00000","3.16704","3204.97"
"38.20000","3.18377","3219.25"
"38.40000","3.19979","3231.6"
"38.60000","3.21693","3246.97"
"38.80000","3.23356","3260.24"
"39.00000","3.24999","3274.22"
"39.20000","3.26682","3288.14"
"39.40000","3.28376","3301.34"
"39.60000","3.30008","3315.43"
"39.80000","3.31651","3328.08"
"40.00000","3.33345","3343.38"
"40.20000","3.35038","3355.51"
"40.40000","3.36641","3368.56"
"40.60000","3.38334","3382.21"
"40.80000","3.40037","3396.71"
"41.00000","3.41650","3409.14"
"41.20000","3.43333","3422.69"
"41.40000","3.45037","3436.89"
"41.60000","3.46700","3448.79"
"41.80000","3.48323","3462.62"
"42.00000","3.50006","3475.09"
"42.20000","3.51709","3489.09"
"42.40000","3.53332","3502.57"
"42.60000","3.54995","3515.41"
"42.80000","3.56699","3528.89"
"43.00000","3.58362","3540.54"
"43.20000","3.59974","3553.15"
"43.40000","3.61728","3565.65"
"43.60000","3.63341","3578.48"
"43.80000","3.65014","3590.94"
"44.00000","3.66677","3602.72"
"44.20000","3.68370","3615.14"
"44.40000","3.69993","3627.07"
"44.60000","3.71656","3638.2"
"44.80000","3.73380","3650.53"
"45.00000","3.75023","3663.35"
"45.20000","3.76636","3673.73"
"45.40000","3.78369","3685.94"
"45.60000","3.80052","3698"
"45.80000","3.81665","3708.9"
"46.00000","3.83338","3719.59"
"46.20000","3.85022","3730.31"
"46.40000","3.86705","3741.73"
"46.60000","3.88318","3750.88"
"46.80000","3.90001","3761.05"
"47.00000","3.91704","3770.62"
"47.20000","3.93327","3779.15"
"47.40000","3.95010","3789.72"
"47.60000","3.96693","3797.16"
"47.80000","3.98346","3805.06"
"48.00000","3.99979","3812.27"
"48.20000","4.01713","3820.47"
"48.40000","4.03336","3826.45"
"48.60000","4.04999","3832.45"
"48.80000","4.06682","3837.97"
"49.00000","4.08365","3842.84"
"49.20000","4.10008","3845.88"
"49.40000","4.11661","3848.46"
"49.60000","4.13365","3848.97"
"49.80000","4.15018","3848.99"
"50.00000","4.16651","3846.02"
"50.20000","4.18374","3841.56"
"50.40000","4.20037","3834.45"
"50.60000","4.21650","3822.57"
"50.80000","4.23333","3806.92"
"51.00000","4.25037","3784.87"
"51.20000","4.26680","3748.66"
"51.40000","4.28323","3684.28"
"51.51800","4.29310","3257.98"
"51.52600","4.29391","2518.91"
"51.53000","4.29441","2104.36"