Folder: 3D-Filament-Dyes/Data_Processing/Tensile-Data (part 13)

File: Sequence_38.csv
General : Start date,"10/29/2024 10:40 AM"
General : End date,"10/29/2024 10:41 AM"
Specimen notes : Specimen note 1,"Day 2, black, 230, batch 6, seq 38"
Test : Rate 1,"5.00000",mm/min

Time,Extension,Load
(s),(mm),(N)
"0.00000","0.00000","-0.09266"
"0.20000","0.01078","12.67566"
"0.40000","0.03235","54.76661"
"0.60000","0.04959","85.88350"
"0.80000","0.06652","114.525"
"1.00000","0.08386","143.089"
"1.20000","0.10019","172.407"
"1.40000","0.11672","199.043"
"1.60000","0.13375","225.838"
"1.80000","0.15038","253.886"
"2.00000","0.16661","280.229"
"2.20000","0.18355","308.676"
"2.40000","0.20008","336.245"
"2.60000","0.21650","362.957"
"2.80000","0.23324","390.443"
"3.00000","0.25027","419.379"
"3.20000","0.26700","445.816"
"3.40000","0.28333","472.967"
"3.60000","0.30037","499.813"
"3.80000","0.31710","526.883"
"4.00000","0.33343","552.297"
"4.20000","0.34996","578.215"
"4.40000","0.36699","606.416"
"4.60000","0.38332","632.092"
"4.80000","0.39975","656.949"
"5.00000","0.41688","684.299"
"5.20000","0.43361","709.594"
"5.40000","0.44994","734.665"
"5.60000","0.46667","760.578"
"5.80000","0.48351","786.08"
"6.00000","0.50014","810.097"
"6.20000","0.51667","834.877"
"6.40000","0.53360","861.028"
"6.60000","0.55053","884.998"
"6.80000","0.56656","908.843"
"7.00000","0.58339","933.432"
"7.20000","0.60023","956.994"
"7.40000","0.61666","980.088"
"7.60000","0.63319","1002.6"
"7.80000","0.65012","1025.09"
"8.00000","0.66665","1048.12"
"8.20000","0.68288","1070.17"
"8.40000","0.70031","1093.4"
"8.60000","0.71644","1113.84"
"8.80000","0.73358","1137.54"
"9.00000","0.75021","1159.55"
"9.20000","0.76714","1181.84"
"9.40000","0.78337","1202.62"
"9.60000","0.79990","1223.91"
"9.80000","0.81703","1246.4"
"10.00000","0.83366","1267.35"
"10.20000","0.84979","1289.01"
"10.40000","0.86693","1309.88"
"10.60000","0.88386","1331.53"
"10.80000","0.89968","1351.07"
"11.00000","0.91652","1372.66"
"11.20000","0.93355","1392.4"
"11.40000","0.94998","1412.4"
"11.60000","0.96641","1432.13"
"11.80000","0.98344","1452.53"
"12.00000","1.00068","1472.05"
"12.20000","1.01660","1488.42"
"12.40000","1.03354","1507.92"
"12.60000","1.05037","1525.6"
"12.80000","1.06670","1543.32"
"13.00000","1.08333","1561.31"
"13.20000","1.10046","1580.54"
"13.40000","1.11659","1598"
"13.60000","1.13302","1616.55"
"13.80000","1.15016","1635.66"
"14.00000","1.16669","1652.95"
"14.20000","1.18312","1670.22"
"14.40000","1.19995","1686.11"
"14.60000","1.21708","1704.69"
"14.80000","1.23361","1721.21"
"15.00000","1.24984","1737.43"
"15.20000","1.26718","1754.29"
"15.40000","1.28351","1772.22"
"15.60000","1.29983","1788.84"
"15.80000","1.31687","1805.41"
"16.00000","1.33360","1823.23"
"16.20000","1.34993","1839.5"
"16.40000","1.36676","1857.23"
"16.60000","1.38339","1874.15"
"16.80000","1.40053","1891.96"
"17.00000","1.41635","1906.87"
"17.20000","1.43349","1924.43"
"17.40000","1.45032","1941.1"
"17.60000","1.46675","1958.26"
"17.80000","1.48328","1974.25"
"18.00000","1.50041","1992.08"
"18.20000","1.51684","2008.18"
"18.40000","1.53347","2025.93"
"18.60000","1.55011","2041.62"
"18.80000","1.56694","2059.56"
"19.00000","1.58306","2074.67"
"19.20000","1.60000","2092.42"
"19.40000","1.61713","2109.69"
"19.60000","1.63356","2126.04"
"19.80000","1.64969","2140.94"
"20.00000","1.66713","2158.44"
"20.20000","1.68356","2174.42"
"20.40000","1.69988","2190.33"
"20.60000","1.71692","2207.63"
"20.80000","1.73385","2225.08"
"21.00000","1.75008","2240.69"
"21.20000","1.76651","2257.02"
"21.40000","1.78354","2274.17"
"21.60000","1.80038","2291.24"
"21.80000","1.81640","2306.49"
"22.00000","1.83344","2323.54"
"22.20000","1.85027","2339.36"
"22.40000","1.86619","2354.28"
"22.60000","1.88363","2371.71"
"22.80000","1.90036","2388.3"
"23.00000","1.91679","2404.89"
"23.20000","1.93332","2420.24"
"23.40000","1.95046","2437.45"
"23.60000","1.96709","2453.85"
"23.80000","1.98311","2469.59"
"24.00000","1.99995","2485.06"
"24.20000","2.01708","2501.74"
"24.40000","2.03311","2518.07"
"24.60000","2.04984","2534.05"
"24.80000","2.06708","2550.6"
"25.00000","2.08330","2566.08"
"25.20000","2.09983","2581.4"
"25.40000","2.11707","2597.53"
"25.60000","2.13370","2613.64"
"25.80000","2.15003","2628.76"
"26.00000","2.16696","2645.73"
"26.20000","2.18349","2661.38"
"26.40000","2.20022","2678.06"
"26.60000","2.21635","2693.3"
"26.80000","2.23359","2709.62"
"27.00000","2.25022","2725.88"
"27.20000","2.26634","2741.47"
"27.40000","2.28358","2757.7"
"27.60000","2.30011","2773.61"
"27.80000","2.31674","2788.91"
"28.00000","2.33347","2804.29"
"28.20000","2.35031","2820.99"
"28.40000","2.36674","2836.75"
"28.60000","2.38327","2852.07"
"28.80000","2.40010","2868.31"
"29.00000","2.41713","2884.71"
"29.20000","2.43316","2899.47"
"29.40000","2.45009","2916.17"
"29.60000","2.46703","2932.12"
"29.80000","2.48325","2946.66"
"30.00000","2.49988","2961.97"
"30.20000","2.51682","2977.96"
"30.40000","2.53355","2993.23"
"30.60000","2.54998","3007.49"
"30.80000","2.56671","3023.02"
"31.00000","2.58374","3039.46"
"31.20000","2.60027","3054.46"
"31.40000","2.61670","3070.98"
"31.60000","2.63364","3086.84"
"31.80000","2.65017","3101.36"
"32.00000","2.66639","3116.65"
"32.20000","2.68373","3132.94"
"32.40000","2.69986","3146.77"
"32.60000","2.71659","3161.91"
"32.80000","2.73352","3178.48"
"33.00000","2.75015","3193.35"
"33.20000","2.76679","3207.73"
"33.40000","2.78311","3223.03"
"33.60000","2.80025","3239.18"
"33.80000","2.81688","3253.63"
"34.00000","2.83301","3268.25"
"34.20000","2.85034","3284.5"
"34.40000","2.86718","3298.59"
"34.60000","2.88320","3313.26"
"34.80000","2.90003","3327.43"
"35.00000","2.91697","3342.49"
"35.20000","2.93360","3356.76"
"35.40000","2.94973","3371.15"
"35.60000","2.96656","3386.11"
"35.80000","2.98349","3400.58"
"36.00000","2.99982","3414.88"
"36.20000","3.01685","3429.32"
"36.40000","3.03359","3444.54"
"36.60000","3.05022","3458.58"
"36.80000","3.06644","3472.59"
"37.00000","3.08388","3488.87"
"37.20000","3.10001","3502.11"
"37.40000","3.11674","3516.39"
"37.60000","3.13367","3531.33"
"37.80000","3.15031","3545.3"
"38.00000","3.16653","3557.82"
"38.20000","3.18306","3572.49"
"38.40000","3.20030","3587.2"
"38.60000","3.21693","3600.22"
"38.80000","3.23306","3612.84"
"39.00000","3.25029","3626.95"
"39.20000","3.26702","3641.04"
"39.40000","3.28305","3653.7"
"39.60000","3.30018","3667.95"
"39.80000","3.31702","3680.17"
"40.00000","3.33345","3694.86"
"40.20000","3.34998","3706.32"
"40.40000","3.36661","3719.55"
"40.60000","3.38384","3733.54"
"40.80000","3.39977","3745.02"
"41.00000","3.41680","3758.48"
"41.20000","3.43354","3770.93"
"41.40000","3.44996","3783.02"
"41.60000","3.46670","3794.87"
"41.80000","3.48383","3807.52"
"42.00000","3.50026","3818.5"
"42.20000","3.51679","3829.3"
"42.40000","3.53372","3840.05"
"42.60000","3.55025","3851.75"
"42.80000","3.56668","3860.98"
"43.00000","3.58352","3871.61"
"43.20000","3.60035","3880.64"
"43.40000","3.61678","3889.36"
"43.60000","3.63311","3895.47"
"43.80000","3.65034","3904.25"
"44.00000","3.66697","3909.63"
"44.20000","3.68350","3913.24"
"44.40000","3.70013","3916.04"
"44.60000","3.71687","3917.64"
"44.80000","3.73319","3917.37"
"45.00000","3.75013","3913.89"
"45.20000","3.76676","3910.02"
"45.40000","3.78369","3903.97"
"45.60000","3.79972","3892.27"
"45.80000","3.81706","3881.48"
"46.00000","3.83359","3863.08"
"46.20000","3.84991","3838.08"
"46.40000","3.86665","3800.33"
"46.60000","3.88378","3709.87"
"46.64600","3.88751","3053.19"
"46.65400","3.88832","2241.72"

File: Sequence_39.csv
General : Start date,"10/29/2024 10:42 AM"
General : End date,"10/29/2024 10:43 AM"
Specimen notes : Specimen note 1,"Day 2, purple, 230, batch 3, seq 39"
Test : Rate 1,"5.00000",mm/min

Time,Extension,Load
(s),(mm),(N)
"0.00000","-0.00010","0.25607"
"0.20000","0.00776","0.56399"
"0.40000","0.02338","6.16228"
"0.60000","0.04606","43.81612"
"0.80000","0.06542","79.24241"
"1.00000","0.08326","107.16"
"1.20000","0.09979","133.284"
"1.40000","0.11692","160.194"
"1.60000","0.13375","187.037"
"1.80000","0.14988","214.405"
"2.00000","0.16691","241.648"
"2.20000","0.18375","268.998"
"2.40000","0.19997","293.951"
"2.60000","0.21661","320.033"
"2.80000","0.23334","346.126"
"3.00000","0.25007","371.817"
"3.20000","0.26650","396.553"
"3.40000","0.28343","422.312"
"3.60000","0.29996","446.731"
"3.80000","0.31679","472.091"
"4.00000","0.33332","496.882"
"4.20000","0.35046","521.749"
"4.40000","0.36699","544.842"
"4.60000","0.38322","567.244"
"4.80000","0.40035","591.846"
"5.00000","0.41678","614.731"
"5.20000","0.43321","636.47"
"5.40000","0.45004","658.385"
"5.60000","0.46698","681.659"
"5.80000","0.48331","701.052"
"6.00000","0.49973","721.588"
"6.20000","0.51687","743.92"
"6.40000","0.53350","763.86"
"6.60000","0.54993","784.343"
"6.80000","0.56696","805.511"
"7.00000","0.58370","826.887"
"7.20000","0.59992","846.037"
"7.40000","0.61666","865.939"
"7.60000","0.63319","886.18"
"7.80000","0.65032","901.846"
"8.00000","0.66635","916.954"
"8.20000","0.68338","934.704"
"8.40000","0.70011","951.131"
"8.60000","0.71614","966.59"
"8.80000","0.73348","985.012"
"9.00000","0.75001","1002.91"
"9.20000","0.76694","1019.63"
"9.40000","0.78337","1036.4"
"9.60000","0.80040","1053.72"
"9.80000","0.81693","1070.19"
"10.00000","0.83326","1085.86"
"10.20000","0.85030","1103.67"
"10.40000","0.86703","1120"
"10.60000","0.88336","1136.67"
"10.80000","0.89968","1152.66"
"11.00000","0.91712","1170.82"
"11.20000","0.93325","1186.19"
"11.40000","0.94948","1202.77"
"11.60000","0.96681","1220.04"
"11.80000","0.98354","1236.56"
"12.00000","0.99977","1252.3"
"12.20000","1.01660","1270.1"
"12.40000","1.03364","1286.25"
"12.60000","1.05027","1302.84"
"12.80000","1.06640","1319.68"
"13.00000","1.08373","1335.71"
"13.20000","1.10036","1350.64"
"13.40000","1.11639","1367.6"
"13.60000","1.13363","1383.43"
"13.80000","1.15016","1399.16"
"14.00000","1.16638","1414.13"
"14.20000","1.18301","1429.47"
"14.40000","1.20005","1443.83"
"14.60000","1.21648","1458.94"
"14.80000","1.23331","1473.54"
"15.00000","1.25024","1489.09"
"15.20000","1.26698","1503.47"
"15.40000","1.28320","1518.24"
"15.60000","1.29983","1533.42"
"15.80000","1.31707","1549.02"
"16.00000","1.33310","1563.75"
"16.20000","1.34983","1579.45"
"16.40000","1.36696","1595.39"
"16.60000","1.38359","1610.07"
"16.80000","1.39972","1624.89"
"17.00000","1.41665","1640.61"
"17.20000","1.43339","1654.81"
"17.40000","1.45002","1670.03"
"17.60000","1.46645","1685.21"
"17.80000","1.48368","1700.68"
"18.00000","1.50011","1715.38"
"18.20000","1.51654","1730.81"
"18.40000","1.53388","1745.41"
"18.60000","1.55011","1760.71"
"18.80000","1.56684","1774.77"
"19.00000","1.58327","1789.9"
"19.20000","1.60020","1806.92"
"19.40000","1.61653","1820.16"
"19.60000","1.63316","1836.09"
"19.80000","1.65029","1853.14"
"20.00000","1.66703","1868.49"
"20.20000","1.68305","1883.03"
"20.40000","1.70019","1899.88"
"20.60000","1.71692","1913.32"
"20.80000","1.73325","1927.68"
"21.00000","1.74978","1943.13"
"21.20000","1.76701","1959.21"
"21.40000","1.78354","1973.44"
"21.60000","1.79987","1988.78"
"21.80000","1.81670","2004.47"
"22.00000","1.83374","2020.94"
"22.20000","1.84987","2035.64"
"22.40000","1.86660","2050.41"
"22.60000","1.88333","2066.29"
"22.80000","1.90016","2082.7"
"23.00000","1.91629","2097.37"
"23.20000","1.93363","2113.15"
"23.40000","1.95005","2127.62"
"23.60000","1.96669","2143.05"
"23.80000","1.98372","2159.65"
"24.00000","2.00035","2174.77"
"24.20000","2.01648","2188.72"
"24.40000","2.03301","2204.82"
"24.60000","2.05044","2221.18"
"24.80000","2.06687","2235.64"
"25.00000","2.08290","2250.96"
"25.20000","2.10004","2266.84"
"25.40000","2.11687","2282.19"
"25.60000","2.13310","2297.33"
"25.80000","2.15003","2313.17"
"26.00000","2.16696","2327.98"
"26.20000","2.18359","2343.93"
"26.40000","2.19992","2358.69"
"26.60000","2.21686","2374.51"
"26.80000","2.23379","2390.43"
"27.00000","2.24971","2405.87"
"27.20000","2.26685","2422.12"
"27.40000","2.28338","2436.99"
"27.60000","2.29981","2452.76"
"27.80000","2.31644","2468.64"
"28.00000","2.33378","2484.32"
"28.20000","2.35000","2500.59"
"28.40000","2.36674","2515.83"
"28.60000","2.38347","2530.92"
"28.80000","2.40030","2546.42"
"29.00000","2.41653","2561.94"
"29.20000","2.43326","2577.91"
"29.40000","2.45019","2593.23"
"29.60000","2.46662","2608.59"
"29.80000","2.48305","2623.7"
"30.00000","2.50039","2639.3"
"30.20000","2.51672","2655.69"
"30.40000","2.53315","2670.14"
"30.60000","2.55008","2686.03"
"30.80000","2.56671","2702.57"
"31.00000","2.58354","2717.35"
"31.20000","2.60007","2732.15"
"31.40000","2.61670","2748.75"
"31.60000","2.63374","2763.74"
"31.80000","2.64976","2778.98"
"32.00000","2.66710","2795.48"
"32.20000","2.68353","2809.8"
"32.40000","2.70016","2825.32"
"32.60000","2.71679","2842.05"
"32.80000","2.73362","2857.82"
"33.00000","2.75005","2873.61"
"33.20000","2.76638","2888.49"
"33.40000","2.78342","2905.12"
"33.60000","2.80015","2919.71"
"33.80000","2.81648","2934.32"
"34.00000","2.83341","2950.27"
"34.20000","2.85034","2966.08"
"34.40000","2.86657","2980.66"
"34.60000","2.88320","2996.2"
"34.80000","2.90054","3012.88"
"35.00000","2.91687","3027.57"
"35.20000","2.93320","3042.05"
"35.40000","2.95013","3057.82"
"35.60000","2.96706","3072.78"
"35.80000","2.98309","3088.01"
"36.00000","2.99982","3103.02"
"36.20000","3.01635","3117.04"
"36.40000","3.03328","3133.14"
"36.60000","3.04951","3147.64"
"36.80000","3.06715","3163.03"
"37.00000","3.08368","3177.71"
"37.20000","3.09971","3191.74"
"37.40000","3.11684","3207.51"
"37.60000","3.13347","3222.7"
"37.80000","3.15000","3237.82"
"38.00000","3.16673","3252.5"
"38.20000","3.18377","3268.15"
"38.40000","3.20000","3282.06"
"38.60000","3.21653","3296.49"
"38.80000","3.23326","3311.93"
"39.00000","3.25029","3325.21"
"39.20000","3.26642","3340.29"
"39.40000","3.28355","3354.93"
"39.60000","3.30029","3368.56"
"39.80000","3.31651","3382.99"
"40.00000","3.33314","3395.59"
"40.20000","3.35028","3410.19"
"40.40000","3.36691","3423.7"
"40.60000","3.38324","3436.5"
"40.80000","3.39997","3449.38"
"41.00000","3.41711","3463.37"
"41.20000","3.43333","3476.26"
"41.40000","3.44986","3488.88"
"41.60000","3.46690","3501.59"
"41.80000","3.48353","3513.36"
"42.00000","3.49976","3524.54"
"42.20000","3.51709","3535.77"
"42.40000","3.53332","3547.44"
"42.60000","3.55015","3557.21"
"42.80000","3.56668","3566.43"
"43.00000","3.58352","3574.31"
"43.20000","3.60005","3582.02"
"43.40000","3.61648","3585.52"
"43.60000","3.63371","3584.16"
"43.71600","3.64359","3197.63"
"43.72400","3.64429","2452.25"
"43.72800","3.64480","2044.32"

File: Sequence_40.csv
General : Start date,"10/29/2024 10:44 AM"
General : End date,"10/29/2024 10:45 AM"
Specimen notes : Specimen note 1,"Day 2, green, 230, batch 1, seq 40"
Test : Rate 1,"5.00000",mm/min

Time,Extension,Load
(s),(mm),(N)
"0.00000","0.00000","0.63567"
"0.20000","0.00756","6.56460"
"0.40000","0.03205","52.10619"
"0.60000","0.04909","80.86390"
"0.80000","0.06683","109.629"
"1.00000","0.08366","136.533"
"1.20000","0.10019","162.904"
"1.40000","0.11682","189.442"
"1.60000","0.13385","216.588"
"1.80000","0.15008","242.544"
"2.00000","0.16671","268.212"
"2.20000","0.18365","295.437"
"2.40000","0.20038","321.818"
"2.60000","0.21650","345.997"
"2.80000","0.23344","373.072"
"3.00000","0.25017","398.6"
"3.20000","0.26660","422.908"
"3.40000","0.28333","448.915"
"3.60000","0.30026","474.304"
"3.80000","0.31700","497.691"
"4.00000","0.33312","522.281"
"4.20000","0.35056","547.635"
"4.40000","0.36719","570.711"
"4.60000","0.38332","593.23"
"4.80000","0.40025","616.862"
"5.00000","0.41708","639.882"
"5.20000","0.43331","661.763"
"5.40000","0.44984","684.017"
"5.60000","0.46698","706.87"
"5.80000","0.48351","728.167"
"6.00000","0.49973","749.242"
"6.20000","0.51687","770.912"
"6.40000","0.53360","791.085"
"6.60000","0.55013","812.501"
"6.80000","0.56676","833.026"
"7.00000","0.58380","854.83"
"7.20000","0.60023","874.702"
"7.40000","0.61655","891.118"
"7.60000","0.63339","908.369"
"7.80000","0.65052","926.324"
"8.00000","0.66655","942.372"
"8.20000","0.68358","959.138"
"8.40000","0.70001","976.28"
"8.60000","0.71644","993.963"
"8.80000","0.73307","1011.09"
"9.00000","0.75041","1029.37"
"9.20000","0.76654","1045.51"
"9.40000","0.78337","1063.94"
"9.60000","0.80050","1080.77"
"9.80000","0.81713","1097.93"
"10.00000","0.83326","1113.9"
"10.20000","0.85019","1130.9"
"10.40000","0.86703","1148.4"
"10.60000","0.88356","1165.18"
"10.80000","0.89978","1181.46"
"11.00000","0.91712","1199.85"
"11.20000","0.93355","1216.12"
"11.40000","0.94978","1232.82"
"11.60000","0.96691","1250.62"
"11.80000","0.98365","1267.98"
"12.00000","1.00018","1285.57"
"12.20000","1.01671","1301.81"
"12.40000","1.03354","1319.72"
"12.60000","1.05057","1336.95"
"12.80000","1.06660","1353.11"
"13.00000","1.08383","1371.84"
"13.20000","1.10026","1387.68"
"13.40000","1.11669","1405.72"
"13.60000","1.13342","1422.19"
"13.80000","1.15026","1439.12"
"14.00000","1.16669","1455.8"
"14.20000","1.18291","1471.54"
"14.40000","1.20015","1490.57"
"14.60000","1.21688","1506.94"
"14.80000","1.23331","1522.37"
"15.00000","1.25014","1539.85"
"15.20000","1.26718","1555.72"
"15.40000","1.28341","1572.23"
"15.60000","1.29973","1589.12"
"15.80000","1.31727","1606.63"
"16.00000","1.33350","1622.23"
"16.20000","1.34993","1639.28"
"16.40000","1.36706","1657.63"
"16.60000","1.38359","1673.17"
"16.80000","1.39992","1689.71"
"17.00000","1.41676","1705.38"
"17.20000","1.43339","1722.44"
"17.40000","1.45022","1737.58"
"17.60000","1.46635","1755.03"
"17.80000","1.48378","1771.02"
"18.00000","1.50031","1787.32"
"18.20000","1.51664","1803.98"
"18.40000","1.53358","1819.08"
"18.60000","1.55031","1834.1"
"18.80000","1.56684","1848.59"
"19.00000","1.58327","1863.96"
"19.20000","1.60030","1878.98"
"19.40000","1.61693","1893.49"
"19.60000","1.63306","1908.01"
"19.80000","1.65009","1923.17"
"20.00000","1.66723","1938"
"20.20000","1.68325","1952.5"
"20.40000","1.70009","1968.55"
"20.60000","1.71712","1982.61"
"20.80000","1.73345","1997.83"
"21.00000","1.74998","2012.43"
"21.20000","1.76711","2028.04"
"21.40000","1.78385","2043.49"
"21.60000","1.80007","2058.34"
"21.80000","1.81670","2072.92"
"22.00000","1.83384","2087.19"
"22.20000","1.85007","2102.85"
"22.40000","1.86650","2118.46"
"22.60000","1.88363","2133.56"
"22.80000","1.90026","2147.87"
"23.00000","1.91639","2162.3"
"23.20000","1.93373","2179.47"
"23.40000","1.95016","2194.45"
"23.60000","1.96689","2208.32"
"23.80000","1.98362","2224.69"
"24.00000","2.00045","2240.21"
"24.20000","2.01678","2254.09"
"24.40000","2.03311","2268.85"
"24.60000","2.05024","2284.84"
"24.80000","2.06697","2299.59"
"25.00000","2.08300","2314.07"
"25.20000","2.10004","2329.21"
"25.40000","2.11687","2344.84"
"25.60000","2.13330","2360.64"
"25.80000","2.15003","2375.29"
"26.00000","2.16716","2391.72"
"26.20000","2.18379","2406.33"
"26.40000","2.19992","2420.64"
"26.60000","2.21686","2436.42"
"26.80000","2.23369","2452.21"
"27.00000","2.25002","2466.3"
"27.20000","2.26665","2480.68"
"27.40000","2.28348","2497.78"
"27.60000","2.30011","2512.18"
"27.80000","2.31634","2526.16"
"28.00000","2.33368","2541.7"
"28.20000","2.35021","2556.48"
"28.40000","2.36674","2571.25"
"28.60000","2.38347","2585.44"
"28.80000","2.40040","2601.93"
"29.00000","2.41663","2615.53"
"29.20000","2.43326","2631.02"
"29.40000","2.45019","2646.85"
"29.60000","2.46703","2661.8"
"29.80000","2.48305","2675.69"
"30.00000","2.50029","2692.55"
"30.20000","2.51692","2706.75"
"30.40000","2.53315","2722.45"
"30.60000","2.54998","2737.03"
"30.80000","2.56681","2752.03"
"31.00000","2.58364","2766.9"
"31.20000","2.60007","2781.8"
"31.40000","2.61691","2797.65"
"31.60000","2.63404","2812.59"
"31.80000","2.64986","2826.22"
"32.00000","2.66700","2841.67"
"32.20000","2.68373","2857.66"
"32.40000","2.70036","2871.95"
"32.60000","2.71649","2886.63"
"32.80000","2.73403","2903.5"
"33.00000","2.74995","2916.71"
"33.20000","2.76658","2931.75"
"33.40000","2.78342","2947.58"
"33.60000","2.80015","2961.49"
"33.80000","2.81648","2976.18"
"34.00000","2.83321","2991.2"
"34.20000","2.85044","3007.65"
"34.40000","2.86687","3020.67"
"34.60000","2.88310","3035.13"
"34.80000","2.90054","3051.15"
"35.00000","2.91697","3065.84"
"35.20000","2.93330","3080.91"
"35.40000","2.95023","3095.16"
"35.60000","2.96706","3109.37"
"35.80000","2.98329","3123.38"
"36.00000","2.99992","3137.61"
"36.20000","3.01645","3151.28"
"36.40000","3.03349","3166.39"
"36.60000","3.04971","3180.47"
"36.80000","3.06715","3195.4"
"37.00000","3.08358","3209.27"
"37.20000","3.10011","3223.94"
"37.40000","3.11684","3237.74"
"37.60000","3.13377","3252.14"
"37.80000","3.15000","3266.44"
"38.00000","3.16694","3281.1"
"38.20000","3.18367","3295.13"
"38.40000","3.20030","3309.28"
"38.60000","3.21663","3322.69"
"38.80000","3.23326","3336.75"
"39.00000","3.25019","3351.59"
"39.20000","3.26682","3365.05"
"39.40000","3.28325","3378.31"
"39.60000","3.30039","3392.1"
"39.80000","3.31682","3406.12"
"40.00000","3.33325","3419.34"
"40.20000","3.35038","3434.02"
"40.40000","3.36701","3447.2"
"40.60000","3.38324","3460.42"
"40.80000","3.39997","3474.42"
"41.00000","3.41721","3487.88"
"41.20000","3.43384","3502.21"
"41.40000","3.44976","3514.3"
"41.60000","3.46680","3527.92"
"41.80000","3.48363","3541.69"
"42.00000","3.49986","3554.44"
"42.20000","3.51709","3567.38"
"42.40000","3.53362","3580.3"
"42.60000","3.55015","3593.34"
"42.80000","3.56658","3605.5"
"43.00000","3.58362","3617.83"
"43.20000","3.60025","3630.95"
"43.40000","3.61658","3642.77"
"43.60000","3.63371","3656.46"
"43.80000","3.65054","3668.14"
"44.00000","3.66647","3680.08"
"44.20000","3.68310","3692.09"
"44.40000","3.70054","3704.74"
"44.60000","3.71677","3716.62"
"44.80000","3.73330","3727.27"
"45.00000","3.75033","3739.4"
"45.20000","3.76706","3751.06"
"45.40000","3.78319","3760.98"
"45.60000","3.80022","3772.46"
"45.80000","3.81695","3782.93"
"46.00000","3.83359","3792.68"
"46.20000","3.84991","3802.45"
"46.40000","3.86705","3812.57"
"46.60000","3.88338","3821.54"
"46.80000","3.89981","3829.98"
"47.00000","3.91704","3839.37"
"47.20000","3.93347","3846.33"
"47.40000","3.94990","3854.14"
"47.60000","3.96673","3860.97"
"47.80000","3.98377","3867.58"
"48.00000","4.00010","3872.27"
"48.20000","4.01673","3875.92"
"48.40000","4.03336","3879.54"
"48.60000","4.05039","3882"
"48.80000","4.06662","3880.76"
"49.00000","4.08345","3878.29"
"49.20000","4.10059","3873.72"
"49.40000","4.11661","3862.86"
"49.60000","4.13324","3841.96"
"49.80000","4.15038","3801.33"
"49.95200","4.16318","3402.65"
"49.96000","4.16389","2654.06"
"49.96400","4.16429","2226.08"