Folder: 3D-Filament-Dyes/Data_Processing/Tensile-Data (part 2)

File: Sequence_4.csv
General : Start date,"10/22/2024 9:16 AM"
General : End date,"10/22/2024 9:17 AM"
Specimen notes : Specimen note 1,"purple, 200, batch 4, seq 4"
Test : Rate 1,"5.00000",mm/min

Time,Extension,Load
(s),(mm),(N)
"0.00000","0.00000","0.72189"
"0.20000","0.01189","14.24866"
"0.40000","0.03235","55.30144"
"0.60000","0.04979","84.22055"
"0.80000","0.06703","115.348"
"1.00000","0.08356","139.713"
"1.20000","0.10009","164.977"
"1.40000","0.11722","193.727"
"1.60000","0.13395","223.28"
"1.80000","0.15018","251.653"
"2.00000","0.16691","279.682"
"2.20000","0.18405","309.737"
"2.40000","0.20028","337.62"
"2.60000","0.21671","366.252"
"2.80000","0.23374","394.737"
"3.00000","0.24997","422.948"
"3.20000","0.26660","450.821"
"3.40000","0.28383","478.932"
"3.60000","0.30026","507.151"
"3.80000","0.31690","536.472"
"4.00000","0.33373","562.143"
"4.20000","0.35056","590.473"
"4.40000","0.36699","617.577"
"4.60000","0.38332","645.429"
"4.80000","0.40055","672.701"
"5.00000","0.41729","700.524"
"5.20000","0.43331","726.676"
"5.40000","0.45035","753.883"
"5.60000","0.46708","781.226"
"5.80000","0.48351","808.423"
"6.00000","0.50004","833.763"
"6.20000","0.51717","861.262"
"6.40000","0.53340","887.165"
"6.60000","0.54993","912.724"
"6.80000","0.56676","939.382"
"7.00000","0.58380","965.904"
"7.20000","0.60002","991.148"
"7.40000","0.61676","1017.64"
"7.60000","0.63379","1043.08"
"7.80000","0.65022","1068.1"
"8.00000","0.66675","1092.61"
"8.20000","0.68388","1118.02"
"8.40000","0.70042","1144.25"
"8.60000","0.71654","1167.99"
"8.80000","0.73368","1193.02"
"9.00000","0.75011","1218.57"
"9.20000","0.76704","1244.06"
"9.40000","0.78327","1267.03"
"9.60000","0.80030","1292.76"
"9.80000","0.81713","1317.16"
"10.00000","0.83306","1341.21"
"10.20000","0.85040","1363.68"
"10.40000","0.86723","1389.47"
"10.60000","0.88356","1412.15"
"10.80000","0.89999","1435.41"
"11.00000","0.91712","1462.22"
"11.20000","0.93355","1485.3"
"11.40000","0.94998","1507.67"
"11.60000","0.96691","1532.97"
"11.80000","0.98385","1556.27"
"12.00000","0.99997","1576.77"
"12.20000","1.01691","1601.28"
"12.40000","1.03394","1623.79"
"12.60000","1.04997","1645.8"
"12.80000","1.06670","1670.02"
"13.00000","1.08363","1693.3"
"13.20000","1.10036","1715.01"
"13.40000","1.11659","1736.12"
"13.60000","1.13342","1758.93"
"13.80000","1.15056","1781.25"
"14.00000","1.16679","1802.3"
"14.20000","1.18342","1822.91"
"14.40000","1.20055","1783.88"
"14.60000","1.21718","1809.75"
"14.80000","1.23331","1834.43"
"15.00000","1.25075","1860.68"
"15.20000","1.26708","1883.69"
"15.40000","1.28351","1906.88"
"15.60000","1.30034","1930.58"
"15.80000","1.31707","1954.01"
"16.00000","1.33320","1976.7"
"16.20000","1.34993","1998.61"
"16.40000","1.36716","2021.98"
"16.60000","1.38370","2043.26"
"16.80000","1.39982","2064.52"
"17.00000","1.41706","2087.77"
"17.20000","1.43379","2107.81"
"17.40000","1.44992","2128.65"
"17.60000","1.46695","2150.47"
"17.80000","1.48388","2171.3"
"18.00000","1.50051","2193.2"
"18.20000","1.51684","2212.72"
"18.40000","1.53368","2180.77"
"18.60000","1.55051","2205.17"
"18.80000","1.56664","2228.85"
"19.00000","1.58357","2252.69"
"19.20000","1.60030","2276.04"
"19.40000","1.61683","2298.14"
"19.60000","1.63326","2320.19"
"19.80000","1.65060","2343.21"
"20.00000","1.66682","2364.88"
"20.20000","1.68366","2386.7"
"20.40000","1.70039","2407.49"
"20.60000","1.71712","2429.28"
"20.80000","1.73335","2449.71"
"21.00000","1.74998","2470.8"
"21.20000","1.76711","2491.7"
"21.40000","1.78374","2513.1"
"21.60000","1.79997","2532.34"
"21.80000","1.81701","2553.36"
"22.00000","1.83354","2571.99"
"22.20000","1.84997","2592.38"
"22.40000","1.86690","2612.69"
"22.60000","1.88373","2572.45"
"22.80000","1.90016","2597.79"
"23.00000","1.91669","2619.88"
"23.20000","1.93363","2643.99"
"23.40000","1.95066","2666.15"
"23.60000","1.96658","2686.72"
"23.80000","1.98382","2709.77"
"24.00000","2.00035","2730.36"
"24.20000","2.01668","2751.15"
"24.40000","2.03341","2771.69"
"24.60000","2.05044","2793.77"
"24.80000","2.06677","2813.59"
"25.00000","2.08330","2834.23"
"25.20000","2.10034","2854.5"
"25.40000","2.11717","2874.8"
"25.60000","2.13320","2893.06"
"25.80000","2.15033","2913.95"
"26.00000","2.16737","2933.52"
"26.20000","2.18359","2952.55"
"26.40000","2.19992","2971.33"
"26.60000","2.21726","2990.39"
"26.80000","2.23349","3007.2"
"27.00000","2.25002","2973.44"
"27.20000","2.26705","2996.63"
"27.40000","2.28378","3018.37"
"27.60000","2.29991","3038.44"
"27.80000","2.31684","3059.87"
"28.00000","2.33357","3078.95"
"28.20000","2.35051","3100.26"
"28.40000","2.36643","3119.45"
"28.60000","2.38377","3140.7"
"28.80000","2.40020","3159.74"
"29.00000","2.41663","3179.32"
"29.20000","2.43376","3198.92"
"29.40000","2.45049","3217.89"
"29.60000","2.46703","3236.18"
"29.80000","2.48345","3254.62"
"30.00000","2.50059","3273.1"
"30.20000","2.51692","3291.77"
"30.40000","2.53304","3307.65"
"30.60000","2.55028","3327.22"
"30.80000","2.56731","3345.35"
"31.00000","2.58344","3362.37"
"31.20000","2.60027","3368.52"
"31.40000","2.61741","3384.28"
"31.60000","2.63344","3401.07"
"31.80000","2.64997","3415.83"
"32.00000","2.66710","3367.99"
"32.20000","2.68383","3204.73"
"32.40000","2.70006","3220.8"
"32.60000","2.71689","3238.47"
"32.80000","2.73372","3257.03"
"33.00000","2.75026","3276.62"
"33.20000","2.76658","3294.73"
"33.40000","2.78382","3314.75"
"33.60000","2.80035","3333.21"
"33.80000","2.81658","3351.46"
"34.00000","2.83371","3370.79"
"34.20000","2.85024","3389.38"
"34.40000","2.86697","3407.25"
"34.60000","2.88350","3422.83"
"34.80000","2.90044","3440.96"
"35.00000","2.91677","3457.33"
"35.20000","2.93320","3474.57"
"35.40000","2.95023","3490.21"
"35.60000","2.96716","3506.69"
"35.80000","2.98309","3522.3"
"36.00000","3.00022","3538.54"
"36.20000","3.01716","3555.21"
"36.40000","3.03349","3570.27"
"36.60000","3.05032","3584.83"
"36.80000","3.06705","3600.03"
"37.00000","3.08398","3615.15"
"37.20000","3.10001","3628.38"
"37.40000","3.11694","3641.52"
"37.60000","3.13367","3656.05"
"37.80000","3.15010","3573.91"
"38.00000","3.16673","3588.71"
"38.20000","3.18367","3604.92"
"38.40000","3.20030","3619.48"
"38.60000","3.21632","3633.02"
"38.80000","3.23376","3648.84"
"39.00000","3.25029","3663.45"
"39.20000","3.26692","3675.85"
"39.40000","3.28365","3688.86"
"39.60000","3.30059","3701.9"
"39.80000","3.31692","3715.6"
"40.00000","3.33325","3728.48"
"40.20000","3.35068","3742.32"
"40.40000","3.36721","3754.9"
"40.60000","3.38334","3765.49"
"40.80000","3.40027","3777.66"
"41.00000","3.41701","3783.03"
"41.20000","3.43313","3792.09"
"41.40000","3.45027","3804.04"
"41.60000","3.46710","3815.31"
"41.80000","3.48373","3825.36"
"42.00000","3.50016","3835.71"
"42.20000","3.51699","3845.32"
"42.40000","3.53393","3854.81"
"42.60000","3.55005","3862.8"
"42.80000","3.56699","3794.51"
"43.00000","3.58382","3812.66"
"43.20000","3.60015","3826.7"
"43.40000","3.61668","3838.38"
"43.60000","3.63391","3851.35"
"43.80000","3.65004","3862.12"
"44.00000","3.66677","3872.73"
"44.20000","3.68350","3882.95"
"44.40000","3.70034","3892.51"
"44.60000","3.71666","3900.81"
"44.80000","3.73330","3909.21"
"45.00000","3.75063","3918.44"
"45.20000","3.76696","3926.72"
"45.40000","3.78339","3932.52"
"45.60000","3.80052","3940.44"
"45.80000","3.81695","3946.82"
"46.00000","3.83328","3950.07"
"46.20000","3.85022","3955.95"
"46.40000","3.86695","3960.32"
"46.60000","3.88358","3964.15"
"46.80000","3.90001","3966.46"
"47.00000","3.91664","3969.24"
"47.20000","3.93387","3972.84"
"47.40000","3.94990","3971.99"
"47.60000","3.96744","3973.73"
"47.80000","3.98377","3971.88"
"48.00000","4.00030","3968.83"
"48.20000","4.01683","3959.47"
"48.40000","4.03386","3940.96"
"48.58600","4.04918","3643.74"
"48.62200","4.05241","3056.29"
"48.63000","4.05321","2278.4"

File: Sequence_5.csv
General : Start date,"10/22/2024 9:21 AM"
General : End date,"10/22/2024 9:21 AM"
Specimen notes : Specimen note 1,"red, 200, batch 2, seq 5"
Test : Rate 1,"5.00000",mm/min

Time,Extension,Load
(s),(mm),(N)
"0.00000","0.00000","-0.29059"
"0.20000","0.01472","21.19757"
"0.40000","0.03336","57.56330"
"0.60000","0.05020","87.45164"
"0.80000","0.06652","116.118"
"1.00000","0.08366","147.721"
"1.20000","0.10039","176.421"
"1.40000","0.11682","205.598"
"1.60000","0.13395","234.962"
"1.80000","0.15038","264.963"
"2.00000","0.16691","293.398"
"2.20000","0.18334","321.838"
"2.40000","0.20058","351.727"
"2.60000","0.21701","379.358"
"2.80000","0.23354","407.532"
"3.00000","0.25017","435.304"
"3.20000","0.26730","465.12"
"3.40000","0.28353","491.981"
"3.60000","0.30006","519.916"
"3.80000","0.31710","548.519"
"4.00000","0.33322","575.547"
"4.20000","0.35006","603.324"
"4.40000","0.36709","631.899"
"4.60000","0.38372","659.855"
"4.80000","0.40025","688.103"
"5.00000","0.41708","715.766"
"5.20000","0.43382","743.219"
"5.40000","0.45004","769.585"
"5.60000","0.46678","796.23"
"5.80000","0.48371","825.396"
"6.00000","0.50054","852.06"
"6.20000","0.51647","878.829"
"6.40000","0.53370","906.714"
"6.60000","0.55053","933.167"
"6.80000","0.56686","959.695"
"7.00000","0.58360","985.466"
"7.20000","0.60023","1012.51"
"7.40000","0.61655","1037.86"
"7.60000","0.63329","1064.41"
"7.80000","0.65042","1090.94"
"8.00000","0.66715","1117.21"
"8.20000","0.68328","1140.28"
"8.40000","0.70021","1166.34"
"8.60000","0.71725","1191.68"
"8.80000","0.73317","1216.71"
"9.00000","0.75001","1241.55"
"9.20000","0.76724","1266.29"
"9.40000","0.78357","1291.86"
"9.60000","0.79990","1315.72"
"9.80000","0.81703","1341.61"
"10.00000","0.83376","1364.04"
"10.20000","0.85009","1388.11"
"10.40000","0.86672","1411.91"
"10.60000","0.88366","1436.51"
"10.80000","0.90029","1461.35"
"11.00000","0.91642","1483.57"
"11.20000","0.93395","1508.14"
"11.40000","0.95038","1531.46"
"11.60000","0.96691","1554.72"
"11.80000","0.98354","1577.09"
"12.00000","1.00038","1600.46"
"12.20000","1.01671","1622.72"
"12.40000","1.03334","1645.63"
"12.60000","1.05037","1668.98"
"12.80000","1.06690","1690.72"
"13.00000","1.08333","1711.33"
"13.20000","1.10046","1735.17"
"13.40000","1.11710","1757.61"
"13.60000","1.13322","1778.93"
"13.80000","1.15016","1800.78"
"14.00000","1.16699","1823.76"
"14.20000","1.18352","1844.19"
"14.40000","1.20015","1865.53"
"14.60000","1.21668","1887.54"
"14.80000","1.23392","1910.44"
"15.00000","1.24994","1929.96"
"15.20000","1.26718","1952.24"
"15.40000","1.28371","1974.18"
"15.60000","1.30034","1995.89"
"15.80000","1.31667","2014.74"
"16.00000","1.33390","2037.1"
"16.20000","1.35033","2057.9"
"16.40000","1.36656","2077.76"
"16.60000","1.38359","2099.7"
"16.80000","1.40033","2118.41"
"17.00000","1.41665","2137.45"
"17.20000","1.43318","2156.73"
"17.40000","1.45052","2176.21"
"17.60000","1.46695","2192.59"
"17.80000","1.48308","2207.91"
"18.00000","1.50041","2227.13"
"18.20000","1.51705","2244.35"
"18.40000","1.53347","2263.26"
"18.60000","1.55011","2282.95"
"18.80000","1.56704","2301.9"
"19.00000","1.58387","2321.46"
"19.20000","1.60020","2340.22"
"19.40000","1.61703","2358.12"
"19.60000","1.63386","2377.03"
"19.80000","1.64979","2393.26"
"20.00000","1.66693","2413.72"
"20.20000","1.68366","2432.28"
"20.40000","1.70009","2451.04"
"20.60000","1.71672","2470.06"
"20.80000","1.73375","2488.27"
"21.00000","1.75018","2507.05"
"21.20000","1.76691","2525.49"
"21.40000","1.78395","2544.25"
"21.60000","1.80048","2562.19"
"21.80000","1.81670","2579.49"
"22.00000","1.83344","2598.07"
"22.20000","1.85057","2617.5"
"22.40000","1.86690","2636.13"
"22.60000","1.88323","2653.77"
"22.80000","1.90046","2671.85"
"23.00000","1.91669","2690.38"
"23.20000","1.93332","2708.42"
"23.40000","1.95036","2726.67"
"23.60000","1.96719","2745.28"
"23.80000","1.98322","2762.37"
"24.00000","2.00015","2781.8"
"24.20000","2.01708","2800.33"
"24.40000","2.03381","2817.87"
"24.60000","2.04994","2834.15"
"24.80000","2.06718","2852.94"
"25.00000","2.08371","2870.95"
"25.20000","2.09993","2886.77"
"25.40000","2.11687","2904.47"
"25.60000","2.13360","2922.77"
"25.80000","2.15003","2940.31"
"26.00000","2.16676","2957.65"
"26.20000","2.18369","2975.15"
"26.40000","2.20033","2993.04"
"26.60000","2.21655","3008.79"
"26.80000","2.23389","3026.89"
"27.00000","2.25062","3044.92"
"27.20000","2.26685","3061.86"
"27.40000","2.28348","3077.8"
"27.60000","2.30051","3095.89"
"27.80000","2.31674","3111.72"
"28.00000","2.33337","3129.63"
"28.20000","2.35031","3146.58"
"28.40000","2.36694","3163.91"
"28.60000","2.38327","3179.51"
"28.80000","2.40020","3196.52"
"29.00000","2.41693","3212.84"
"29.20000","2.43356","3230.55"
"29.40000","2.44989","3245.75"
"29.60000","2.46703","3263.22"
"29.80000","2.48366","3280.24"
"30.00000","2.49988","3296.3"
"30.20000","2.51702","3213.44"
"30.40000","2.53365","3227.69"
"30.60000","2.55058","3249.81"
"30.80000","2.56691","3270.04"
"31.00000","2.58374","3290.54"
"31.20000","2.60017","3309.86"
"31.40000","2.61650","3329.27"
"31.60000","2.63364","3349.71"
"31.80000","2.65057","3358.08"
"32.00000","2.66680","3341.19"
"32.20000","2.68383","3363.61"
"32.40000","2.70066","3385.19"
"32.60000","2.71659","3405.21"
"32.80000","2.73322","3425.41"
"33.00000","2.75036","3446.76"
"33.20000","2.76709","3467"
"33.40000","2.78332","3486.37"
"33.60000","2.80005","3506.69"
"33.80000","2.81718","3525.96"
"34.00000","2.83321","3544.49"
"34.20000","2.84994","3563.18"
"34.40000","2.86718","3582.08"
"34.60000","2.88371","3600.73"
"34.80000","2.89983","3618.59"
"35.00000","2.91717","3636.92"
"35.20000","2.93350","3654.26"
"35.40000","2.95023","3671.32"
"35.60000","2.96686","3688.48"
"35.80000","2.98379","3705.07"
"36.00000","2.99992","3720.43"
"36.20000","3.01655","3736.14"
"36.40000","3.03379","3753.44"
"36.60000","3.05032","3769.26"
"36.80000","3.06634","3783.82"
"37.00000","3.08368","3801.25"
"37.20000","3.10041","3815.8"
"37.40000","3.11674","3830.12"
"37.60000","3.13367","3844.7"
"37.80000","3.15061","3860.28"
"38.00000","3.16704","3873.95"
"38.20000","3.18326","3888.23"
"38.40000","3.20030","3903.37"
"38.60000","3.21723","3918.11"
"38.80000","3.23326","3931.4"
"39.00000","3.25039","3945.6"
"39.20000","3.26692","3959.7"
"39.40000","3.28355","3973.66"
"39.60000","3.29978","3985.43"
"39.80000","3.31712","3999.57"
"40.00000","3.33345","4010.21"
"40.20000","3.35028","3952.73"
"40.40000","3.36701","3963.75"
"40.60000","3.38405","3981.39"
"40.80000","3.40017","3996.49"
"41.00000","3.41660","4012.5"
"41.20000","3.43394","4028.29"
"41.40000","3.45047","4042.13"
"41.60000","3.46680","4055.01"
"41.80000","3.48363","4068.62"
"42.00000","3.50016","4083.14"
"42.20000","3.51669","4094.52"
"42.40000","3.53362","4109"
"42.60000","3.55035","4121.41"
"42.80000","3.56709","4133.83"
"43.00000","3.58342","4144.7"
"43.20000","3.60015","4156.29"
"43.40000","3.61738","4167.01"
"43.60000","3.63321","4174.24"
"43.80000","3.65044","4184.49"
"44.00000","3.66717","4192.59"
"44.20000","3.68340","4198.49"
"44.40000","3.70003","4202.36"
"44.60000","3.71707","4203.71"
"44.80000","3.73350","4200.46"
"45.00000","3.74983","4190.4"
"45.20000","3.76686","4164.52"
"45.39800","3.78389","3876.83"
"45.40600","3.78450","3166.16"
"45.41400","3.78541","2255.71"

File: Sequence_6.csv
General : Start date,"10/22/2024 9:24 AM"
General : End date,"10/22/2024 9:25 AM"
Specimen notes : Specimen note 1,"purple, 200, batch 10, seq 6"
Test : Rate 1,"5.00000",mm/min

Time,Extension,Load
(s),(mm),(N)
"0.00000","-0.00020","-0.07016"
"0.20000","0.01058","12.62137"
"0.40000","0.03326","56.08270"
"0.60000","0.04979","83.30157"
"0.80000","0.06642","110.401"
"1.00000","0.08336","138.073"
"1.20000","0.10019","166.217"
"1.40000","0.11632","193.444"
"1.60000","0.13345","223.321"
"1.80000","0.15028","251.744"
"2.00000","0.16651","277.959"
"2.20000","0.18334","306.536"
"2.40000","0.20028","333.773"
"2.60000","0.21661","360.934"
"2.80000","0.23314","388.061"
"3.00000","0.25027","416.159"
"3.20000","0.26690","443.772"
"3.40000","0.28323","469.029"
"3.60000","0.30006","497.111"
"3.80000","0.31710","524.157"
"4.00000","0.33332","550.232"
"4.20000","0.34975","577.434"
"4.40000","0.36689","604.078"
"4.60000","0.38302","630.75"
"4.80000","0.39955","655.612"
"5.00000","0.41688","683.985"
"5.20000","0.43341","709.841"
"5.40000","0.45004","735.606"
"5.60000","0.46678","762.382"
"5.80000","0.48351","788.818"
"6.00000","0.50004","814.712"
"6.20000","0.51657","840.044"
"6.40000","0.53350","866.359"
"6.60000","0.55033","892.44"
"6.80000","0.56636","917.48"
"7.00000","0.58349","942.634"
"7.20000","0.60013","968.798"
"7.40000","0.61666","993.738"
"7.60000","0.63319","1018.67"
"7.80000","0.65012","1044.79"
"8.00000","0.66645","1069.33"
"8.20000","0.68298","1092.29"
"8.40000","0.69981","1118.28"
"8.60000","0.71695","1144.02"
"8.80000","0.73307","1167.05"
"9.00000","0.74970","1190.36"
"9.20000","0.76694","1216.99"
"9.40000","0.78337","1240.08"
"9.60000","0.79980","1263.26"
"9.80000","0.81683","1287.8"
"10.00000","0.83356","1311.73"
"10.20000","0.84969","1333.31"
"10.40000","0.86683","1357.5"
"10.60000","0.88315","1380.28"
"10.80000","0.90019","1404.22"
"11.00000","0.91631","1426.32"
"11.20000","0.93335","1450.52"
"11.40000","0.95028","1472.69"
"11.60000","0.96621","1495.54"
"11.80000","0.98354","1518.44"
"12.00000","1.00018","1541.21"
"12.20000","1.01671","1562.09"
"12.40000","1.03313","1583.24"
"12.60000","1.05027","1605.71"
"12.80000","1.06670","1626.61"
"13.00000","1.08303","1647.31"
"13.20000","1.09996","1669.93"
"13.40000","1.11699","1691.49"
"13.60000","1.13302","1710.97"
"13.80000","1.14985","1731.16"
"14.00000","1.16709","1753.25"
"14.20000","1.18312","1773.67"
"14.40000","1.19985","1793.16"
"14.60000","1.21688","1814.47"
"14.80000","1.23341","1834.64"
"15.00000","1.24974","1854.19"
"15.20000","1.26647","1875.01"
"15.40000","1.28361","1895.77"
"15.60000","1.29983","1914.36"
"15.80000","1.31667","1935.06"
"16.00000","1.33360","1954.94"
"16.20000","1.35023","1974.35"
"16.40000","1.36626","1989.81"
"16.60000","1.38380","2011.17"
"16.80000","1.40002","2030.23"
"17.00000","1.41655","2047.85"
"17.20000","1.43329","2067.42"
"17.40000","1.45012","2087.23"
"17.60000","1.46645","2106.45"
"17.80000","1.48308","2124.36"
"18.00000","1.50021","2143.69"
"18.20000","1.51674","2162.82"
"18.40000","1.53297","2180.26"
"18.60000","1.55021","2198.28"
"18.80000","1.56694","2216.05"
"19.00000","1.58306","2234.21"
"19.20000","1.60010","2250.9"
"19.40000","1.61673","2269"
"19.60000","1.63356","2286.55"
"19.80000","1.64989","2301.4"
"20.00000","1.66682","2317.06"
"20.20000","1.68356","2331.55"
"20.40000","1.69978","2346.98"
"20.60000","1.71672","2363.54"
"20.80000","1.73325","2380.72"
"21.00000","1.74988","2397.99"
"21.20000","1.76641","2413.3"
"21.40000","1.78364","2430.73"
"21.60000","1.79987","2417.43"
"21.80000","1.81681","2383.61"
"22.00000","1.83364","2405.22"
"22.20000","1.85017","2425.25"
"22.40000","1.86650","2444.96"
"22.60000","1.88313","2464.27"
"22.80000","1.90016","2484.69"
"23.00000","1.91679","2503.04"
"23.20000","1.93302","2519.99"
"23.40000","1.94995","2538.98"
"23.60000","1.96658","2557.19"
"23.80000","1.98291","2573.18"
"24.00000","1.99995","2591.98"
"24.20000","2.01688","2610.12"
"24.40000","2.03331","2626.14"
"24.60000","2.04984","2642.16"
"24.80000","2.06677","2659.81"
"25.00000","2.08371","2677.26"
"25.20000","2.09963","2692.66"
"25.40000","2.11687","2710.21"
"25.60000","2.13350","2726.84"
"25.80000","2.14963","2743.18"
"26.00000","2.16656","2759.46"
"26.20000","2.18349","2775.63"
"26.40000","2.19982","2786.08"
"26.60000","2.21635","2800.86"
"26.80000","2.23339","2817.81"
"27.00000","2.25022","2832.62"
"27.20000","2.26645","2847.43"
"27.40000","2.28348","2863.67"
"27.60000","2.30041","2880.05"
"27.80000","2.31674","2894.5"
"28.00000","2.33297","2908.17"
"28.20000","2.35041","2862.85"
"28.40000","2.36663","2883.27"
"28.60000","2.38306","2901.85"
"28.80000","2.40020","2917.79"
"29.00000","2.41693","2933.77"
"29.20000","2.43316","2951.94"
"29.40000","2.44999","2967.59"
"29.60000","2.46672","2984.75"
"29.80000","2.48366","3000.5"
"30.00000","2.49958","3016.11"
"30.20000","2.51692","3034.38"
"30.40000","2.53335","3050.79"
"30.60000","2.54978","3065.86"
"30.80000","2.56671","3082.59"
"31.00000","2.58364","3098.54"
"31.20000","2.60007","3113.28"
"31.40000","2.61660","3127.93"
"31.60000","2.63354","3144.53"
"31.80000","2.65007","3159.27"
"32.00000","2.66629","3173.84"
"32.20000","2.68343","3187.47"
"32.40000","2.70046","3201.89"
"32.60000","2.71649","3215.97"
"32.80000","2.73332","3229.81"
"33.00000","2.75046","3245.11"
"33.20000","2.76658","3259.18"
"33.40000","2.78301","3271.63"
"33.60000","2.80015","3285.95"
"33.80000","2.81688","3300.1"
"34.00000","2.83311","3312.58"
"34.20000","2.84984","3327.41"
"34.40000","2.86677","3341.9"
"34.60000","2.88340","3355.19"
"34.80000","2.89973","3362.81"
"35.00000","2.91687","3374.29"
"35.20000","2.93350","3387.4"
"35.40000","2.94962","3399.64"
"35.60000","2.96696","3339.07"
"35.80000","2.98329","3359.66"
"36.00000","3.00002","3377.15"
"36.20000","3.01665","3392.73"
"36.40000","3.03349","3408.65"
"36.60000","3.04991","3423.19"
"36.80000","3.06634","3437.86"
"37.00000","3.08338","3452.12"
"37.20000","3.10031","3403.55"
"37.40000","3.11624","3421.52"
"37.60000","3.13327","3439.62"
"37.80000","3.15031","3457.25"
"38.00000","3.16653","3473.52"
"38.20000","3.18326","3489.13"
"38.40000","3.20010","3505.62"
"38.60000","3.21713","3520.86"
"38.80000","3.23306","3533.46"
"39.00000","3.24999","3466.58"
"39.20000","3.26682","3443.34"
"39.40000","3.28325","3456.98"
"39.60000","3.29978","3469.61"
"39.80000","3.31682","3484.82"
"40.00000","3.33345","3498.96"
"40.20000","3.34937","3512.94"
"40.40000","3.36691","3526.08"
"40.60000","3.38334","3536.88"
"40.80000","3.39997","3549.9"
"41.00000","3.41670","3563.65"
"41.20000","3.43374","3577"
"41.40000","3.44996","3588.64"
"41.60000","3.46639","3600.88"
"41.80000","3.48373","3612.45"
"42.00000","3.50036","3623.73"
"42.20000","3.51639","3634.59"
"42.40000","3.53332","3646.13"
"42.60000","3.55005","3657.29"
"42.80000","3.56628","3667.7"
"43.00000","3.58331","3679.11"
"43.20000","3.60015","3689.43"
"43.40000","3.61678","3699.76"
"43.60000","3.63331","3708.48"
"43.80000","3.65004","3718.56"
"44.00000","3.66707","3728.35"
"44.20000","3.68320","3737.08"
"44.40000","3.70013","3745.24"
"44.60000","3.71687","3752.77"
"44.80000","3.73319","3760.04"
"45.00000","3.74972","3767.61"
"45.20000","3.76696","3776.5"
"45.40000","3.78319","3782.32"
"45.60000","3.79992","3789.26"
"45.80000","3.81655","3795.55"
"46.00000","3.83348","3801.52"
"46.20000","3.84971","3806.54"
"46.40000","3.86624","3811.5"
"46.60000","3.88368","3818.15"
"46.80000","3.90011","3823.09"
"47.00000","3.91644","3826.37"
"47.20000","3.93357","3830.64"
"47.40000","3.95020","3834.39"
"47.60000","3.96653","3834.21"
"47.80000","3.98326","3836.59"
"48.00000","3.99989","3836.79"
"48.20000","4.01673","3837.15"
"48.40000","4.03306","3834.57"
"48.60000","4.04979","3830.28"
"48.80000","4.06682","3821.46"
"49.00000","4.08295","3799.09"
"49.20000","4.10049","3644.32"
"49.40000","4.11692","3459.47"
"49.60000","4.13355","3362.52"
"49.80000","4.14998","3236.22"
"49.86200","4.15562","2727.28"
"49.87000","4.15643","2127.17"
"49.87200","4.15663","1954.91"