Folder: 3D-Filament-Dyes/Data_Processing/Tensile-Data

Note: README.md
# 3D-Filament-Dyes
ME 103 Project - Effect of Dyes on 3D Prints


Randomize-Prints
- Contains algorithm to randomize prints to avoid bias using MATLAB

File: Sequence_1.csv
General : Start date,"10/22/2024 9:06 AM"
General : End date,"10/22/2024 9:06 AM"
Specimen notes : Specimen note 1,"black, 200, batch 5, seq 1"
Test : Rate 1,"5.00000",mm/min

Time,Extension,Load
(s),(mm),(N)
"0.00000","0.00010","73.39417"
"0.20000","0.00857","80.01574"
"0.40000","0.03195","124.511"
"0.60000","0.04979","158.176"
"0.80000","0.06693","189.48"
"1.00000","0.08315","218.733"
"1.20000","0.10039","249.946"
"1.40000","0.11682","267.571"
"1.60000","0.13315","294.557"
"1.80000","0.15048","324.701"
"2.00000","0.16681","353.442"
"2.20000","0.18365","382.089"
"2.40000","0.20028","410.709"
"2.60000","0.21701","440.598"
"2.80000","0.23384","469.204"
"3.00000","0.24987","497.394"
"3.20000","0.26710","526.47"
"3.40000","0.28383","556.227"
"3.60000","0.30006","584.903"
"3.80000","0.31669","614.648"
"4.00000","0.33383","644.507"
"4.20000","0.35016","674.351"
"4.40000","0.36669","701.113"
"4.60000","0.38382","730.475"
"4.80000","0.39995","758.933"
"5.00000","0.41678","787.229"
"5.20000","0.43321","815.445"
"5.40000","0.45055","845.222"
"5.60000","0.46667","872.199"
"5.80000","0.48331","901.921"
"6.00000","0.50034","929.454"
"6.20000","0.51697","958.185"
"6.40000","0.53320","986.056"
"6.60000","0.55033","1014.89"
"6.80000","0.56727","1043.72"
"7.00000","0.58309","1070.19"
"7.20000","0.60013","1097.16"
"7.40000","0.61666","1125.84"
"7.60000","0.63369","1154.38"
"7.80000","0.64992","1180.46"
"8.00000","0.66695","1208.34"
"8.20000","0.68368","1236.96"
"8.40000","0.69971","1263.59"
"8.60000","0.71674","1291.16"
"8.80000","0.73378","1318.66"
"9.00000","0.75011","1345.34"
"9.20000","0.76654","1371.73"
"9.40000","0.78367","1399.44"
"9.60000","0.80020","1426.27"
"9.80000","0.81663","1452.1"
"10.00000","0.83356","1480.82"
"10.20000","0.85050","1507.48"
"10.40000","0.86672","1533.18"
"10.60000","0.88336","1557.56"
"10.80000","0.90049","1584.83"
"11.00000","0.91662","1610.68"
"11.20000","0.93315","1635.95"
"11.40000","0.95028","1663.38"
"11.60000","0.96691","1689.32"
"11.80000","0.98324","1713.85"
"12.00000","1.00007","1739.3"
"12.20000","1.01701","1766.39"
"12.40000","1.03364","1791.37"
"12.60000","1.04997","1816.23"
"12.80000","1.06700","1841.84"
"13.00000","1.08353","1867.22"
"13.20000","1.09986","1892.44"
"13.40000","1.11710","1917.29"
"13.60000","1.13353","1942.69"
"13.80000","1.15016","1966.93"
"14.00000","1.16669","1991.17"
"14.20000","1.18362","2015.82"
"14.40000","1.20005","2040.9"
"14.60000","1.21648","2064.24"
"14.80000","1.23351","2089.86"
"15.00000","1.25034","2114.49"
"15.20000","1.26657","2138.19"
"15.40000","1.28341","2162.93"
"15.60000","1.30034","2187.43"
"15.80000","1.31667","2211.27"
"16.00000","1.33330","2234.4"
"16.20000","1.35043","2259.11"
"16.40000","1.36706","2282.58"
"16.60000","1.38329","2306.06"
"16.80000","1.40023","2329.74"
"17.00000","1.41706","2353.95"
"17.20000","1.43349","2375.87"
"17.40000","1.44992","2399.06"
"17.60000","1.46685","2423.41"
"17.80000","1.48358","2445.99"
"18.00000","1.49971","2468.11"
"18.20000","1.51694","2492.52"
"18.40000","1.53327","2513.55"
"18.60000","1.55031","2537.41"
"18.80000","1.56684","2558.86"
"19.00000","1.58367","2582.64"
"19.20000","1.60010","2605.33"
"19.40000","1.61663","2626.93"
"19.60000","1.63366","2650.04"
"19.80000","1.65029","2671.57"
"20.00000","1.66642","2694.31"
"20.20000","1.68356","2715.6"
"20.40000","1.70029","2737.85"
"20.60000","1.71641","2759.13"
"20.80000","1.73335","2780.28"
"21.00000","1.75038","2803.65"
"21.20000","1.76691","2824.52"
"21.40000","1.78334","2844.84"
"21.60000","1.80017","2866.31"
"21.80000","1.81731","2888.81"
"22.00000","1.83303","2909.51"
"22.20000","1.85027","2930.92"
"22.40000","1.86690","2952"
"22.60000","1.88333","2972.58"
"22.80000","1.89986","2992.9"
"23.00000","1.91709","3013.63"
"23.20000","1.93332","3032.83"
"23.40000","1.94985","3054.07"
"23.60000","1.96689","3074.93"
"23.80000","1.98372","3095.06"
"24.00000","1.99995","3113.9"
"24.20000","2.01678","3134.65"
"24.40000","2.03381","3155.87"
"24.60000","2.05034","3175.91"
"24.80000","2.06647","3193.8"
"25.00000","2.08381","3214.1"
"25.20000","2.10024","3233.13"
"25.40000","2.11657","3251.72"
"25.60000","2.13340","3270.25"
"25.80000","2.15033","3290.68"
"26.00000","2.16666","3308.13"
"26.20000","2.18329","3325.96"
"26.40000","2.20002","3344.83"
"26.60000","2.21706","3363.5"
"26.80000","2.23308","3381.02"
"27.00000","2.25022","3399.91"
"27.20000","2.26675","3418.17"
"27.40000","2.28318","3435.19"
"27.60000","2.30001","3453.71"
"27.80000","2.31704","3471.5"
"28.00000","2.33357","3487.65"
"28.20000","2.35021","3504.88"
"28.40000","2.36714","3520.9"
"28.60000","2.38367","3537.79"
"28.80000","2.39990","3553.99"
"29.00000","2.41663","3569.73"
"29.20000","2.43376","3587.43"
"29.40000","2.45029","3603.06"
"29.60000","2.46662","3619"
"29.80000","2.48396","3635.59"
"30.00000","2.50029","3650.8"
"30.20000","2.51641","3665.27"
"30.40000","2.53345","3672.52"
"30.60000","2.55038","3688.5"
"30.80000","2.56671","3702.59"
"31.00000","2.58334","3718.03"
"31.20000","2.60017","3732.39"
"31.40000","2.61711","3747.2"
"31.60000","2.63303","3759.75"
"31.80000","2.65027","3774.62"
"32.00000","2.66710","3788.62"
"32.20000","2.68323","3802.06"
"32.40000","2.70016","3816.45"
"32.60000","2.71709","3829.43"
"32.80000","2.73352","3841.46"
"33.00000","2.75005","3853.95"
"33.20000","2.76689","3865.9"
"33.40000","2.78352","3877.68"
"33.60000","2.79985","3889"
"33.80000","2.81668","3900.53"
"34.00000","2.83391","3913.04"
"34.20000","2.84974","3922.55"
"34.40000","2.86657","3932.93"
"34.60000","2.88381","3944"
"34.80000","2.89993","3953.44"
"35.00000","2.91677","3962.19"
"35.20000","2.93350","3971.06"
"35.40000","2.95063","3979.13"
"35.60000","2.96666","3984.42"
"35.80000","2.98339","3989.42"
"36.00000","3.00022","3994.06"
"36.20000","3.01685","3992.68"
"36.40000","3.03308","3992.11"
"36.60000","3.05052","3991.98"
"36.80000","3.06695","3987.81"
"37.00000","3.08308","3968.91"
"37.20000","3.10051","3943"
"37.40000","3.11674","3913.84"
"37.58400","3.13226","3558.03"
"37.59200","3.13307","2831.11"
"37.59800","3.13367","2184.92"

File: Sequence_2.csv
General : Start date,"10/22/2024 9:09 AM"
General : End date,"10/22/2024 9:10 AM"
Specimen notes : Specimen note 1,"black, 200, batch 2, seq 2"
Test : Rate 1,"5.00000",mm/min

Time,Extension,Load
(s),(mm),(N)
"0.00000","0.00000","0.64735"
"0.20000","0.01129","13.82545"
"0.40000","0.03286","57.51871"
"0.60000","0.04989","86.94006"
"0.80000","0.06673","115.194"
"1.00000","0.08386","142.649"
"1.20000","0.10029","169.797"
"1.40000","0.11682","196.749"
"1.60000","0.13375","225.532"
"1.80000","0.15069","254.843"
"2.00000","0.16681","281.477"
"2.20000","0.18344","309.452"
"2.40000","0.20038","337.112"
"2.60000","0.21640","364.038"
"2.80000","0.23354","392.357"
"3.00000","0.25057","420.39"
"3.20000","0.26690","446.537"
"3.40000","0.28363","474.925"
"3.60000","0.30037","501.841"
"3.80000","0.31720","529.117"
"4.00000","0.33332","555.436"
"4.20000","0.35026","582.768"
"4.40000","0.36709","609.936"
"4.60000","0.38362","636.293"
"4.80000","0.40005","662.885"
"5.00000","0.41729","690.3"
"5.20000","0.43361","716.139"
"5.40000","0.44994","741.745"
"5.60000","0.46698","768.332"
"5.80000","0.48341","793.976"
"6.00000","0.50004","818.553"
"6.20000","0.51657","844.394"
"6.40000","0.53380","870.729"
"6.60000","0.55023","895.872"
"6.80000","0.56666","920.819"
"7.00000","0.58360","945.801"
"7.20000","0.60053","969.888"
"7.40000","0.61655","992.937"
"7.60000","0.63349","1018.07"
"7.80000","0.65042","1042.12"
"8.00000","0.66695","1065.86"
"8.20000","0.68328","1089.04"
"8.40000","0.70001","1112.54"
"8.60000","0.71705","1136.57"
"8.80000","0.73327","1158.39"
"9.00000","0.75021","1182.05"
"9.20000","0.76704","1206.01"
"9.40000","0.78347","1227.78"
"9.60000","0.79970","1250.36"
"9.80000","0.81713","1273.86"
"10.00000","0.83366","1293.73"
"10.20000","0.84999","1316.3"
"10.40000","0.86693","1337.96"
"10.60000","0.88366","1359.88"
"10.80000","0.90009","1380.9"
"11.00000","0.91662","1401.74"
"11.20000","0.93365","1423.88"
"11.40000","0.95028","1444.34"
"11.60000","0.96661","1465.28"
"11.80000","0.98375","1486.88"
"12.00000","1.00028","1507.97"
"12.20000","1.01650","1527.78"
"12.40000","1.03354","1547.86"
"12.60000","1.05037","1569.57"
"12.80000","1.06670","1589.2"
"13.00000","1.08343","1609.72"
"13.20000","1.10006","1629.75"
"13.40000","1.11710","1650.42"
"13.60000","1.13322","1670.29"
"13.80000","1.15046","1691.62"
"14.00000","1.16699","1710.9"
"14.20000","1.18352","1730.73"
"14.40000","1.20015","1749.63"
"14.60000","1.21708","1770.64"
"14.80000","1.23361","1789.79"
"15.00000","1.25004","1807.77"
"15.20000","1.26708","1827.08"
"15.40000","1.28361","1845.84"
"15.60000","1.29983","1862.82"
"15.80000","1.31677","1881.41"
"16.00000","1.33370","1900.25"
"16.20000","1.35003","1916.9"
"16.40000","1.36656","1933.08"
"16.60000","1.38380","1950.66"
"16.80000","1.40012","1968.76"
"17.00000","1.41676","1985.01"
"17.20000","1.43349","2002.5"
"17.40000","1.45052","2021.05"
"17.60000","1.46675","2037.24"
"17.80000","1.48358","2055.6"
"18.00000","1.50031","2073.49"
"18.20000","1.51694","2090.84"
"18.40000","1.53317","2107.58"
"18.60000","1.55041","2127.1"
"18.80000","1.56674","2143.73"
"19.00000","1.58337","2161.55"
"19.20000","1.60030","2179.37"
"19.40000","1.61663","2196.18"
"19.60000","1.63366","2214.88"
"19.80000","1.65019","2231.8"
"20.00000","1.66713","2250.54"
"20.20000","1.68356","2267.24"
"20.40000","1.69999","2284.2"
"20.60000","1.71682","2302.34"
"20.80000","1.73385","2320.78"
"21.00000","1.75008","2337.6"
"21.20000","1.76671","2353.61"
"21.40000","1.78364","2371.07"
"21.60000","1.79997","2387.92"
"21.80000","1.81650","2405.38"
"22.00000","1.83354","2423.21"
"22.20000","1.85057","2441.04"
"22.40000","1.86650","2456.33"
"22.60000","1.88333","2475.4"
"22.80000","1.90056","2493.53"
"23.00000","1.91679","2510.33"
"23.20000","1.93312","2525.9"
"23.40000","1.95036","2544.77"
"23.60000","1.96699","2561.73"
"23.80000","1.98301","2577.45"
"24.00000","2.00045","2595.18"
"24.20000","2.01678","2611.71"
"24.40000","2.03331","2628.17"
"24.60000","2.04994","2645.09"
"24.80000","2.06697","2662.27"
"25.00000","2.08361","2680.36"
"25.20000","2.10004","2695.53"
"25.40000","2.11727","2714.32"
"25.60000","2.13390","2730.06"
"25.80000","2.14993","2746.13"
"26.00000","2.16696","2762.45"
"26.20000","2.18390","2780.02"
"26.40000","2.19992","2794.57"
"26.60000","2.21675","2812.4"
"26.80000","2.23369","2829.45"
"27.00000","2.25022","2846.41"
"27.20000","2.26655","2861.41"
"27.40000","2.28338","2878"
"27.60000","2.30041","2894.34"
"27.80000","2.31654","2910.18"
"28.00000","2.33337","2926.55"
"28.20000","2.35021","2943.56"
"28.40000","2.36684","2960.05"
"28.60000","2.38327","2975.79"
"28.80000","2.40080","2992.3"
"29.00000","2.41683","3006.95"
"29.20000","2.43366","3023.53"
"29.40000","2.45019","3039.08"
"29.60000","2.46703","3055.42"
"29.80000","2.48325","3070.08"
"30.00000","2.49978","3085.99"
"30.20000","2.51712","3103.22"
"30.40000","2.53375","3119.82"
"30.60000","2.55008","3134.22"
"30.80000","2.56711","3151.57"
"31.00000","2.58374","3167.61"
"31.20000","2.59987","3182.15"
"31.40000","2.61670","3197.34"
"31.60000","2.63364","3212.62"
"31.80000","2.65037","3229.39"
"32.00000","2.66670","3243.49"
"32.20000","2.68333","3258.27"
"32.40000","2.70056","3274.07"
"32.60000","2.71659","3288.18"
"32.80000","2.73352","3303.21"
"33.00000","2.75036","3219.26"
"33.20000","2.76689","3242.02"
"33.40000","2.78321","3260.91"
"33.60000","2.80055","3279.42"
"33.80000","2.81688","3298.16"
"34.00000","2.83341","3316.06"
"34.20000","2.85024","3332.88"
"34.40000","2.86697","3349.68"
"34.60000","2.88330","3364.59"
"34.80000","2.89963","3381.66"
"35.00000","2.91717","3399.14"
"35.20000","2.93350","3415.39"
"35.40000","2.94973","3431.16"
"35.60000","2.96696","3448.46"
"35.80000","2.98379","3458.3"
"36.00000","3.00002","3473.05"
"36.20000","3.01685","3489.45"
"36.40000","3.03399","3504.78"
"36.60000","3.05022","3518.22"
"36.80000","3.06665","3532.55"
"37.00000","3.08338","3547.16"
"37.20000","3.10051","3562.09"
"37.40000","3.11644","3574.86"
"37.60000","3.13377","3591.14"
"37.80000","3.15031","3603.68"
"38.00000","3.16663","3616.83"
"38.20000","3.18337","3631.09"
"38.40000","3.20040","3644.35"
"38.60000","3.21703","3658.18"
"38.80000","3.23346","3671.04"
"39.00000","3.25039","3680.15"
"39.20000","3.26712","3693.33"
"39.40000","3.28325","3705.48"
"39.60000","3.30008","3714.09"
"39.80000","3.31722","3727.06"
"40.00000","3.33365","3731.7"
"40.20000","3.35018","3742.02"
"40.40000","3.36701","3753.85"
"40.60000","3.38344","3765"
"40.80000","3.39997","3775.3"
"41.00000","3.41680","3787.32"
"41.20000","3.43374","3797.1"
"41.40000","3.44996","3808.26"
"41.60000","3.46690","3819.13"
"41.80000","3.48383","3829.31"
"42.00000","3.50066","3840.43"
"42.20000","3.51649","3849.76"
"42.40000","3.53383","3861.07"
"42.60000","3.55035","3871.11"
"42.80000","3.56658","3879.54"
"43.00000","3.58362","3888.41"
"43.20000","3.60015","3897.41"
"43.40000","3.61688","3905.67"
"43.60000","3.63331","3912.88"
"43.80000","3.65014","3921.74"
"44.00000","3.66697","3929.5"
"44.20000","3.68330","3935.38"
"44.40000","3.70024","3941.17"
"44.60000","3.71717","3946.09"
"44.80000","3.73330","3948.86"
"45.00000","3.75013","3952.18"
"45.20000","3.76726","3950.97"
"45.40000","3.78339","3947.3"
"45.60000","3.80012","3940.38"
"45.80000","3.81685","3926.8"
"46.00000","3.83369","3898.15"
"46.15800","3.84659","3609.99"
"46.16600","3.84729","2900.83"
"46.17200","3.84800","2253.35"

File: Sequence_3.csv
General : Start date,"10/22/2024 9:13 AM"
General : End date,"10/22/2024 9:14 AM"
Specimen notes : Specimen note 1,"black, 200, batch 4, seq 3"
Test : Rate 1,"5.00000",mm/min

Time,Extension,Load
(s),(mm),(N)
"0.00000","-0.06431","-2.19952"
"0.20000","-0.05342","9.43504"
"0.40000","-0.03135","54.39290"
"0.60000","-0.01441","84.87593"
"0.80000","0.00212","114.989"
"1.00000","0.01945","143.818"
"1.20000","0.03588","170.948"
"1.40000","0.05251","198.763"
"1.60000","0.06925","227.13"
"1.80000","0.08638","256.936"
"2.00000","0.10271","285.577"
"2.20000","0.11924","313.029"
"2.40000","0.13607","341.357"
"2.60000","0.15290","370.173"
"2.80000","0.16893","397.825"
"3.00000","0.18586","426.617"
"3.20000","0.20270","455.197"
"3.40000","0.21882","482.743"
"3.60000","0.23596","510.685"
"3.80000","0.25279","538.826"
"4.00000","0.26942","566.132"
"4.20000","0.28595","594.162"
"4.40000","0.30278","621.124"
"4.60000","0.31962","649.576"
"4.80000","0.33554","675.889"
"5.00000","0.35278","703.049"
"5.20000","0.36951","730.223"
"5.40000","0.38604","756.499"
"5.60000","0.40237","783.789"
"5.80000","0.41960","811.59"
"6.00000","0.43593","838.844"
"6.20000","0.45226","865.23"
"6.40000","0.46960","891.951"
"6.60000","0.48572","918.433"
"6.80000","0.50246","944.976"
"7.00000","0.51889","971.827"
"7.20000","0.53622","999.871"
"7.40000","0.55245","1025.94"
"7.60000","0.56908","1052.75"
"7.80000","0.58601","1078.42"
"8.00000","0.60285","1104.53"
"8.20000","0.61907","1129.99"
"8.40000","0.63611","1156.19"
"8.60000","0.65294","1182.33"
"8.80000","0.66897","1206.79"
"9.00000","0.68580","1233.15"
"9.20000","0.70253","1257.97"
"9.40000","0.71946","1284.75"
"9.60000","0.73559","1309.96"
"9.80000","0.75263","1335.84"
"10.00000","0.76936","1360.7"
"10.20000","0.78569","1385.09"
"10.40000","0.80242","1409.75"
"10.60000","0.81955","1436.61"
"10.80000","0.83598","1461"
"11.00000","0.85241","1485.74"
"11.20000","0.86945","1511.17"
"11.40000","0.88598","1536.4"
"11.60000","0.90241","1559.77"
"11.80000","0.91914","1583.63"
"12.00000","0.93607","1609.84"
"12.20000","0.95260","1632.67"
"12.40000","0.96903","1655.84"
"12.60000","0.98637","1680.9"
"12.80000","1.00270","1703.95"
"13.00000","1.01902","1727.27"
"13.20000","1.03596","1751.87"
"13.40000","1.05269","1775.73"
"13.60000","1.06912","1799.48"
"13.80000","1.08565","1821.46"
"14.00000","1.10258","1845.18"
"14.20000","1.11951","1868.95"
"14.40000","1.13544","1890.96"
"14.60000","1.15278","1916.08"
"14.80000","1.16951","1938.11"
"15.00000","1.18584","1960.37"
"15.20000","1.20267","1981.85"
"15.40000","1.21940","2006.11"
"15.60000","1.23593","2027.06"
"15.80000","1.25236","2049.9"
"16.00000","1.26939","2072.61"
"16.20000","1.28593","2095.24"
"16.40000","1.30205","2116.23"
"16.60000","1.31919","2138.26"
"16.80000","1.33622","2160.81"
"17.00000","1.35245","2181.9"
"17.20000","1.36908","2203.3"
"17.40000","1.38621","2225.86"
"17.60000","1.40244","2245.89"
"17.80000","1.41917","2266.85"
"18.00000","1.43621","2289.06"
"18.20000","1.45284","2310.86"
"18.40000","1.46907","2331.83"
"18.60000","1.48600","2353.02"
"18.80000","1.50273","2372.84"
"19.00000","1.51926","2393.68"
"19.20000","1.53569","2413.65"
"19.40000","1.55273","2434.29"
"19.60000","1.56916","2454.56"
"19.80000","1.58548","2475.69"
"20.00000","1.60272","2497.66"
"20.20000","1.61905","2516.68"
"20.40000","1.63608","2538.02"
"20.60000","1.65261","2557.22"
"20.80000","1.66955","2578.07"
"21.00000","1.68587","2597.57"
"21.20000","1.70240","2616.29"
"21.40000","1.71934","2636.72"
"21.60000","1.73607","2656.46"
"21.80000","1.75240","2674.66"
"22.00000","1.76913","2692.98"
"22.20000","1.78606","2712.18"
"22.40000","1.80239","2730.39"
"22.60000","1.81912","2749.61"
"22.80000","1.83596","2766.87"
"23.00000","1.85279","2709"
"23.20000","1.86902","2731.26"
"23.40000","1.88585","2753.18"
"23.60000","1.90298","2776.06"
"23.80000","1.91911","2796.34"
"24.00000","1.93564","2816.73"
"24.20000","1.95257","2836.57"
"24.40000","1.96941","2857.82"
"24.60000","1.98563","2876.94"
"24.80000","2.00287","2898.22"
"25.00000","2.01900","2917"
"25.20000","2.03573","2936.01"
"25.40000","2.05236","2955.19"
"25.60000","2.06939","2974.21"
"25.80000","2.08592","2993.39"
"26.00000","2.10235","3011.84"
"26.20000","2.11959","3030.9"
"26.40000","2.13622","3048.69"
"26.60000","2.15225","3065.9"
"26.80000","2.16948","3085.75"
"27.00000","2.18621","3103.75"
"27.20000","2.20244","3120.51"
"27.40000","2.21907","3137.76"
"27.60000","2.23611","3157.2"
"27.80000","2.25244","3174.77"
"28.00000","2.26876","3190.09"
"28.20000","2.28600","3208.65"
"28.40000","2.30293","3226.4"
"28.60000","2.31886","3241.52"
"28.80000","2.33589","3258.4"
"29.00000","2.35273","3275.32"
"29.20000","2.36915","3291.65"
"29.40000","2.38548","3307.29"
"29.60000","2.40302","3325.23"
"29.80000","2.41935","3341.51"
"30.00000","2.43588","3358.47"
"30.20000","2.45271","3300.11"
"30.40000","2.46944","3323.67"
"30.60000","2.48567","3343.54"
"30.80000","2.50240","3362.39"
"31.00000","2.51954","3382.76"
"31.20000","2.53617","3355.08"
"31.40000","2.55230","3346.98"
"31.60000","2.56983","3369.06"
"31.80000","2.58616","3388.67"
"32.00000","2.60229","3406.8"
"32.20000","2.61922","3427.4"
"32.40000","2.63606","3447.54"
"32.60000","2.65249","3464.97"
"32.80000","2.66932","3484.86"
"33.00000","2.68575","3501.81"
"33.20000","2.70288","3520.63"
"33.40000","2.71871","3537.44"
"33.60000","2.73604","3556.2"
"33.80000","2.75267","3572.74"
"34.00000","2.76900","3589.49"
"34.20000","2.78573","3605.57"
"34.40000","2.80287","3623.45"
"34.60000","2.81920","3639.08"
"34.80000","2.83573","3655.59"
"35.00000","2.85286","3671.91"
"35.20000","2.86939","3686.32"
"35.40000","2.88582","3701.41"
"35.60000","2.90235","3716.26"
"35.80000","2.91959","3732.18"
"36.00000","2.93561","3744.82"
"36.20000","2.95214","3758.38"
"36.40000","2.96948","3773.35"
"36.60000","2.98601","3787.02"
"36.80000","3.00254","3799.38"
"37.00000","3.01937","3813.6"
"37.20000","3.03631","3827.33"
"37.40000","3.05243","3840.06"
"37.60000","3.06917","3847.59"
"37.80000","3.08600","3854.98"
"38.00000","3.10283","3866.9"
"38.20000","3.11886","3877.9"
"38.40000","3.13609","3891.82"
"38.60000","3.15262","3823.54"
"38.80000","3.16885","3843.69"
"39.00000","3.18599","3859.75"
"39.20000","3.20272","3875.46"
"39.40000","3.21955","3888.14"
"39.60000","3.23588","3901.27"
"39.80000","3.25291","3915.94"
"40.00000","3.26954","3928.55"
"40.20000","3.28577","3939.54"
"40.40000","3.30260","3952.34"
"40.60000","3.31974","3965.25"
"40.80000","3.33587","3975.61"
"41.00000","3.35240","3985.25"
"41.20000","3.36943","3994.41"
"41.40000","3.38586","4003.47"
"41.60000","3.40239","4011.34"
"41.80000","3.41922","4019"
"42.00000","3.43626","4024.93"
"42.20000","3.45248","4029.83"
"42.40000","3.46932","4033.04"
"42.60000","3.48625","4034"
"42.80000","3.50288","4032.57"
"43.00000","3.51901","4025.19"
"43.20000","3.53624","4003.6"
"43.40000","3.55288","3976.97"
"43.59400","3.56850","3618.07"
"43.60200","3.56920","2867.04"
"43.60800","3.56991","2203.32"