Folder: 3D-Filament-Dyes/Data_Processing/Tensile-Data (part 11)

File: Sequence_32.csv
General : Start date,"10/29/2024 10:25 AM"
General : End date,"10/29/2024 10:25 AM"
Specimen notes : Specimen note 1,"Day 2, blue, 215, batch 8, seq 32"
Test : Rate 1,"5.00000",mm/min

Time,Extension,Load
(s),(mm),(N)
"0.00000","0.00010","0.13382"
"0.20000","0.01643","22.61315"
"0.40000","0.03487","58.82217"
"0.60000","0.05211","88.07114"
"0.80000","0.06935","116.494"
"1.00000","0.08588","144.713"
"1.20000","0.10241","172.545"
"1.40000","0.11934","201.027"
"1.60000","0.13627","227.683"
"1.80000","0.15270","253.533"
"2.00000","0.16903","279.245"
"2.20000","0.18607","307.495"
"2.40000","0.20260","334.896"
"2.60000","0.21872","360.196"
"2.80000","0.23596","388.517"
"3.00000","0.25279","414.542"
"3.20000","0.26902","440.336"
"3.40000","0.28565","466.521"
"3.60000","0.30278","491.346"
"3.80000","0.31931","516.741"
"4.00000","0.33584","540.97"
"4.20000","0.35278","566.769"
"4.40000","0.36951","592.161"
"4.60000","0.38564","616.906"
"4.80000","0.40247","641.573"
"5.00000","0.41920","665.709"
"5.20000","0.43573","688.159"
"5.40000","0.45226","711.543"
"5.60000","0.46930","735.732"
"5.80000","0.48583","758.409"
"6.00000","0.50195","781.199"
"6.20000","0.51939","804.991"
"6.40000","0.53552","826.084"
"6.60000","0.55255","849.678"
"6.80000","0.56928","871.218"
"7.00000","0.58622","893.988"
"7.20000","0.60244","914.189"
"7.40000","0.61928","935.493"
"7.60000","0.63611","958.297"
"7.80000","0.65264","980.547"
"8.00000","0.66897","1002.17"
"8.20000","0.68570","1023.38"
"8.40000","0.70283","1044.57"
"8.60000","0.71896","1063.17"
"8.80000","0.73559","1082.24"
"9.00000","0.75263","1101.66"
"9.20000","0.76895","1121.09"
"9.40000","0.78569","1140.26"
"9.60000","0.80232","1160.44"
"9.80000","0.81965","1180.58"
"10.00000","0.83578","1199"
"10.20000","0.85241","1218.22"
"10.40000","0.86945","1238.02"
"10.60000","0.88608","1257.63"
"10.80000","0.90200","1275.52"
"11.00000","0.91924","1296.18"
"11.20000","0.93587","1314.86"
"11.40000","0.95220","1333.39"
"11.60000","0.96903","1351.7"
"11.80000","0.98576","1372.17"
"12.00000","1.00229","1390.98"
"12.20000","1.01902","1409.7"
"12.40000","1.03596","1429.61"
"12.60000","1.05279","1446.98"
"12.80000","1.06882","1464.06"
"13.00000","1.08585","1483.37"
"13.20000","1.10288","1501.69"
"13.40000","1.11891","1519.14"
"13.60000","1.13564","1537.1"
"13.80000","1.15278","1556.12"
"14.00000","1.16911","1574.25"
"14.20000","1.18553","1591.48"
"14.40000","1.20227","1609.95"
"14.60000","1.21950","1627.49"
"14.80000","1.23553","1642.96"
"15.00000","1.25236","1661.76"
"15.20000","1.26939","1679.31"
"15.40000","1.28582","1695.53"
"15.60000","1.30215","1712.5"
"15.80000","1.31979","1731.41"
"16.00000","1.33572","1747.23"
"16.20000","1.35235","1765.31"
"16.40000","1.36908","1783.15"
"16.60000","1.38601","1800.67"
"16.80000","1.40224","1818.11"
"17.00000","1.41887","1836.51"
"17.20000","1.43611","1854.77"
"17.40000","1.45254","1871.67"
"17.60000","1.46866","1887.93"
"17.80000","1.48620","1906.93"
"18.00000","1.50263","1923.49"
"18.20000","1.51896","1938.8"
"18.40000","1.53589","1957.26"
"18.60000","1.55283","1974.19"
"18.80000","1.56916","1990.7"
"19.00000","1.58569","2008.03"
"19.20000","1.60252","2025.54"
"19.40000","1.61945","2042.22"
"19.60000","1.63538","2059.04"
"19.80000","1.65251","2077.4"
"20.00000","1.66934","2094.04"
"20.20000","1.68567","2110.93"
"20.40000","1.70251","2127.87"
"20.60000","1.71944","2145.82"
"20.80000","1.73587","2161.78"
"21.00000","1.75240","2178.31"
"21.20000","1.76943","2195.77"
"21.40000","1.78606","2212.72"
"21.60000","1.80229","2230.46"
"21.80000","1.81902","2246.92"
"22.00000","1.83606","2263.48"
"22.20000","1.85239","2280.59"
"22.40000","1.86871","2297.27"
"22.60000","1.88585","2313.81"
"22.80000","1.90238","2330.52"
"23.00000","1.91901","2345.52"
"23.20000","1.93604","2361.73"
"23.40000","1.95288","2378.65"
"23.60000","1.96910","2394.8"
"23.80000","1.98574","2410.49"
"24.00000","2.00247","2426.87"
"24.20000","2.01950","2443.03"
"24.40000","2.03543","2458.58"
"24.60000","2.05256","2474.83"
"24.80000","2.06939","2490.75"
"25.00000","2.08542","2506.07"
"25.20000","2.10245","2522.74"
"25.40000","2.11929","2539.72"
"25.60000","2.13572","2554.02"
"25.80000","2.15245","2569.63"
"26.00000","2.16938","2586.09"
"26.20000","2.18591","2602.14"
"26.40000","2.20234","2617.64"
"26.60000","2.21917","2634.63"
"26.80000","2.23611","2650.84"
"27.00000","2.25233","2665.67"
"27.20000","2.26897","2682.21"
"27.40000","2.28610","2697.65"
"27.60000","2.30223","2713.51"
"27.80000","2.31876","2729.65"
"28.00000","2.33599","2746.14"
"28.20000","2.35262","2761.92"
"28.40000","2.36885","2776.67"
"28.60000","2.38599","2793.87"
"28.80000","2.40272","2809.84"
"29.00000","2.41935","2824.46"
"29.20000","2.43558","2840.03"
"29.40000","2.45281","2855.1"
"29.60000","2.46934","2871.01"
"29.80000","2.48567","2887.02"
"30.00000","2.50281","2902.61"
"30.20000","2.51914","2917.67"
"30.40000","2.53556","2933.21"
"30.60000","2.55220","2948.53"
"30.80000","2.56923","2964.25"
"31.00000","2.58586","2980.12"
"31.20000","2.60239","2995.35"
"31.40000","2.61932","3011.18"
"31.60000","2.63606","3025.64"
"31.80000","2.65208","3041.08"
"32.00000","2.66932","3057.37"
"32.20000","2.68635","3072.22"
"32.40000","2.70238","3086.85"
"32.60000","2.71891","3101.75"
"32.80000","2.73604","3116.96"
"33.00000","2.75257","3131.79"
"33.20000","2.76890","3146.34"
"33.40000","2.78563","3161.92"
"33.60000","2.80237","3176.17"
"33.80000","2.81890","3191.3"
"34.00000","2.83573","3205.92"
"34.20000","2.85276","3220.84"
"34.40000","2.86939","3236.03"
"34.60000","2.88532","3249.15"
"34.80000","2.90276","3265.08"
"35.00000","2.91919","3279.44"
"35.20000","2.93602","3294.68"
"35.40000","2.95275","3309.15"
"35.60000","2.96918","3323.17"
"35.80000","2.98561","3337.01"
"36.00000","3.00224","3351.82"
"36.20000","3.01917","3366.67"
"36.40000","3.03601","3380.93"
"36.60000","3.05223","3394.05"
"36.80000","3.06937","3409.06"
"37.00000","3.08610","3424.36"
"37.20000","3.10233","3437.66"
"37.40000","3.11906","3452.72"
"37.60000","3.13599","3466.38"
"37.80000","3.15262","3480.17"
"38.00000","3.16895","3493.76"
"38.20000","3.18558","3508.2"
"38.40000","3.20282","3523.04"
"38.60000","3.21884","3536.8"
"38.80000","3.23588","3551.29"
"39.00000","3.25251","3564.6"
"39.20000","3.26924","3577.19"
"39.40000","3.28547","3591"
"39.60000","3.30281","3606.02"
"39.80000","3.31903","3617.61"
"40.00000","3.33566","3631.07"
"40.20000","3.35280","3644.88"
"40.40000","3.36933","3658.47"
"40.60000","3.38556","3671.37"
"40.80000","3.40229","3683.79"
"41.00000","3.41963","3698.72"
"41.20000","3.43585","3709.86"
"41.40000","3.45218","3723.13"
"41.60000","3.46942","3737.14"
"41.80000","3.48615","3749.4"
"42.00000","3.50228","3762.2"
"42.20000","3.51911","3774.73"
"42.40000","3.53594","3787.92"
"42.60000","3.55257","3800.35"
"42.80000","3.56890","3810.57"
"43.00000","3.58583","3824.13"
"43.20000","3.60287","3836.89"
"43.40000","3.61889","3846.93"
"43.60000","3.63603","3859.18"
"43.80000","3.65256","3870.08"
"44.00000","3.66889","3881.17"
"44.20000","3.68562","3892.17"
"44.40000","3.70275","3904.13"
"44.60000","3.71888","3915.43"
"44.80000","3.73571","3925.12"
"45.00000","3.75275","3936.82"
"45.20000","3.76948","3947.28"
"45.40000","3.78571","3957.88"
"45.60000","3.80234","3967.17"
"45.80000","3.81927","3978.77"
"46.00000","3.83580","3989"
"46.20000","3.85233","3996.93"
"46.40000","3.86987","4007.69"
"46.60000","3.88580","4015.03"
"46.80000","3.90223","3981.99"
"47.00000","3.91926","3995.71"
"47.20000","3.93599","4007.87"
"47.40000","3.95232","4017.79"
"47.60000","3.96915","4025.92"
"47.80000","3.98588","4033.92"
"48.00000","4.00282","4043.72"
"48.20000","4.01874","4052.17"
"48.40000","4.03618","4061.6"
"48.60000","4.05281","4068.29"
"48.80000","4.06914","4073.54"
"49.00000","4.08577","4077.61"
"49.20000","4.10250","4081.19"
"49.40000","4.11893","4085.43"
"49.60000","4.13566","4086.88"
"49.80000","4.15240","4089.43"
"50.00000","4.16933","4089.48"
"50.20000","4.18556","4087.09"
"50.40000","4.20249","4084.75"
"50.60000","4.21962","4080.86"
"50.80000","4.23565","4071.43"
"51.00000","4.25228","4058.4"
"51.20000","4.26962","4038.49"
"51.40000","4.28595","3991.99"
"51.50600","4.29462","3610.97"
"51.51400","4.29542","2831.53"
"51.51800","4.29582","2381.68"

File: Sequence_33.csv
General : Start date,"10/29/2024 10:27 AM"
General : End date,"10/29/2024 10:28 AM"
Specimen notes : Specimen note 1,"Day 2, blue, 215, batch 4, seq 33"
Test : Rate 1,"5.00000",mm/min

Time,Extension,Load
(s),(mm),(N)
"0.00000","0.00000","0.32550"
"0.20000","0.00947","10.69310"
"0.40000","0.03235","53.55503"
"0.60000","0.04959","80.60544"
"0.80000","0.06642","106.789"
"1.00000","0.08356","135.531"
"1.20000","0.10019","162.028"
"1.40000","0.11682","189.038"
"1.60000","0.13355","217.73"
"1.80000","0.15059","244.22"
"2.00000","0.16691","270.421"
"2.20000","0.18324","294.943"
"2.40000","0.20038","323.361"
"2.60000","0.21691","349.296"
"2.80000","0.23303","373.762"
"3.00000","0.25017","400.682"
"3.20000","0.26690","425.571"
"3.40000","0.28333","450.555"
"3.60000","0.29986","475.212"
"3.80000","0.31700","499.001"
"4.00000","0.33343","523.606"
"4.20000","0.35006","548.536"
"4.40000","0.36699","572.669"
"4.60000","0.38392","597.103"
"4.80000","0.39995","620.738"
"5.00000","0.41688","643.96"
"5.20000","0.43341","666.863"
"5.40000","0.45004","688.701"
"5.60000","0.46657","709.88"
"5.80000","0.48361","732.568"
"6.00000","0.50014","755.231"
"6.20000","0.51626","775.776"
"6.40000","0.53350","797.621"
"6.60000","0.54983","819.617"
"6.80000","0.56686","842.003"
"7.00000","0.58349","862.451"
"7.20000","0.60053","883.423"
"7.40000","0.61696","902.683"
"7.60000","0.63329","922.297"
"7.80000","0.65012","941.088"
"8.00000","0.66685","961.123"
"8.20000","0.68348","981.17"
"8.40000","0.69991","1000.82"
"8.60000","0.71695","1020.65"
"8.80000","0.73327","1038.37"
"9.00000","0.74980","1055.51"
"9.20000","0.76684","1073.01"
"9.40000","0.78347","1090.16"
"9.60000","0.79990","1105.33"
"9.80000","0.81673","1122.43"
"10.00000","0.83387","1140.45"
"10.20000","0.85009","1155.64"
"10.40000","0.86672","1172.45"
"10.60000","0.88366","1189.06"
"10.80000","0.90029","1206.08"
"11.00000","0.91621","1221.36"
"11.20000","0.93355","1239.76"
"11.40000","0.95028","1255.98"
"11.60000","0.96641","1271.83"
"11.80000","0.98324","1289.53"
"12.00000","1.00018","1305.13"
"12.20000","1.01660","1319.95"
"12.40000","1.03324","1337.24"
"12.60000","1.05037","1352.58"
"12.80000","1.06700","1368.5"
"13.00000","1.08323","1381.23"
"13.20000","1.10006","1397.42"
"13.40000","1.11710","1412.99"
"13.60000","1.13332","1427.31"
"13.80000","1.14995","1441.36"
"14.00000","1.16709","1457.55"
"14.20000","1.18352","1472.41"
"14.40000","1.19965","1485.06"
"14.60000","1.21678","1499.89"
"14.80000","1.23392","1514.7"
"15.00000","1.24974","1528.61"
"15.20000","1.26657","1544.63"
"15.40000","1.28361","1560.15"
"15.60000","1.30014","1574.95"
"15.80000","1.31657","1589.97"
"16.00000","1.33380","1605.13"
"16.20000","1.35003","1620.88"
"16.40000","1.36666","1635.43"
"16.60000","1.38339","1650.14"
"16.80000","1.40033","1665.94"
"17.00000","1.41655","1680.56"
"17.20000","1.43298","1695.64"
"17.40000","1.45032","1711.53"
"17.60000","1.46695","1725.66"
"17.80000","1.48308","1740.12"
"18.00000","1.50051","1756.81"
"18.20000","1.51684","1770.15"
"18.40000","1.53327","1785.44"
"18.60000","1.55021","1799.68"
"18.80000","1.56714","1815.77"
"19.00000","1.58337","1830.11"
"19.20000","1.60000","1845"
"19.40000","1.61673","1859.85"
"19.60000","1.63386","1875.21"
"19.80000","1.64969","1888.61"
"20.00000","1.66682","1903.9"
"20.20000","1.68346","1919.02"
"20.40000","1.69988","1933.66"
"20.60000","1.71652","1947.19"
"20.80000","1.73365","1963.15"
"21.00000","1.75028","1979.46"
"21.20000","1.76671","1993.42"
"21.40000","1.78374","2008.87"
"21.60000","1.80038","2024.13"
"21.80000","1.81660","2038.23"
"22.00000","1.83323","2052.62"
"22.20000","1.85037","2067.8"
"22.40000","1.86670","2083.11"
"22.60000","1.88293","2098.05"
"22.80000","1.90016","2114.32"
"23.00000","1.91689","2128.53"
"23.20000","1.93322","2143.42"
"23.40000","1.95026","2157.89"
"23.60000","1.96699","2174.29"
"23.80000","1.98342","2188.94"
"24.00000","2.00005","2203.64"
"24.20000","2.01688","2218.69"
"24.40000","2.03391","2234.39"
"24.60000","2.04974","2248.62"
"24.80000","2.06697","2263.87"
"25.00000","2.08361","2279.17"
"25.20000","2.09973","2293"
"25.40000","2.11667","2308.49"
"25.60000","2.13370","2323.37"
"25.80000","2.15003","2336.97"
"26.00000","2.16656","2351.62"
"26.20000","2.18359","2366.53"
"26.40000","2.20043","2381.3"
"26.60000","2.21645","2395.26"
"26.80000","2.23328","2412.71"
"27.00000","2.25032","2427.86"
"27.20000","2.26665","2442.77"
"27.40000","2.28328","2457.2"
"27.60000","2.30031","2473.02"
"27.80000","2.31664","2488.99"
"28.00000","2.33317","2504.07"
"28.20000","2.35010","2517.94"
"28.40000","2.36674","2533.09"
"28.60000","2.38337","2547.54"
"28.80000","2.40030","2562.79"
"29.00000","2.41703","2577.39"
"29.20000","2.43376","2592.97"
"29.40000","2.44989","2606.75"
"29.60000","2.46713","2621.68"
"29.80000","2.48345","2636.22"
"30.00000","2.49998","2651.81"
"30.20000","2.51692","2667.01"
"30.40000","2.53345","2681.51"
"30.60000","2.54988","2696.48"
"30.80000","2.56651","2712.19"
"31.00000","2.58344","2727.17"
"31.20000","2.60007","2743.31"
"31.40000","2.61660","2757.55"
"31.60000","2.63354","2773.83"
"31.80000","2.65037","2789.19"
"32.00000","2.66650","2802.63"
"32.20000","2.68343","2818.05"
"32.40000","2.70056","2834.12"
"32.60000","2.71669","2848.08"
"32.80000","2.73332","2863.72"
"33.00000","2.75026","2877.66"
"33.20000","2.76699","2892.68"
"33.40000","2.78301","2906.36"
"33.60000","2.80005","2921.73"
"33.80000","2.81648","2935.77"
"34.00000","2.83341","2950.43"
"34.20000","2.84974","2964.77"
"34.40000","2.86707","2981.85"
"34.60000","2.88381","2993.95"
"34.80000","2.89983","3009.35"
"35.00000","2.91707","3024.7"
"35.20000","2.93350","3039.13"
"35.40000","2.95013","3054.04"
"35.60000","2.96676","3068.4"
"35.80000","2.98369","3084.48"
"36.00000","2.99992","3098.2"
"36.20000","3.01655","3112.67"
"36.40000","3.03328","3126.49"
"36.60000","3.05022","3140.93"
"36.80000","3.06644","3154.6"
"37.00000","3.08358","3169.19"
"37.20000","3.10041","3184.12"
"37.40000","3.11644","3198.09"
"37.60000","3.13327","3212.19"
"37.80000","3.15031","3227.9"
"38.00000","3.16714","3240.97"
"38.20000","3.18326","3254.72"
"38.40000","3.19979","3269.58"
"38.60000","3.21713","3284.26"
"38.80000","3.23326","3297.73"
"39.00000","3.24999","3313.18"
"39.20000","3.26692","3327.76"
"39.40000","3.28355","3342.05"
"39.60000","3.29978","3354.93"
"39.80000","3.31722","3369.18"
"40.00000","3.33345","3381.96"
"40.20000","3.35008","3396.37"
"40.40000","3.36691","3411.33"
"40.60000","3.38374","3424.23"
"40.80000","3.39987","3437.22"
"41.00000","3.41680","3452.84"
"41.20000","3.43384","3467.19"
"41.40000","3.45017","3479.79"
"41.60000","3.46629","3493.43"
"41.80000","3.48363","3508.31"
"42.00000","3.50036","3522.1"
"42.20000","3.51659","3535.39"
"42.40000","3.53342","3549.14"
"42.60000","3.55025","3563.26"
"42.80000","3.56689","3577.43"
"43.00000","3.58321","3590.34"
"43.20000","3.60005","3602.33"
"43.40000","3.61718","3617.1"
"43.60000","3.63331","3628.81"
"43.80000","3.65014","3641.8"
"44.00000","3.66687","3655.16"
"44.20000","3.68340","3667.81"
"44.40000","3.69983","3679.82"
"44.60000","3.71707","3693.87"
"44.80000","3.73309","3706.52"
"45.00000","3.75003","3718.65"
"45.20000","3.76706","3731.93"
"45.40000","3.78359","3744.93"
"45.60000","3.79992","3755.96"
"45.80000","3.81665","3769.68"
"46.00000","3.83359","3782.63"
"46.20000","3.85022","3794.26"
"46.40000","3.86654","3806.12"
"46.60000","3.88378","3819.77"
"46.80000","3.90021","3831.22"
"47.00000","3.91644","3841.44"
"47.20000","3.93347","3853.22"
"47.40000","3.95020","3865.03"
"47.60000","3.96663","3876.44"
"47.80000","3.98336","3887.38"
"48.00000","4.00010","3899.52"
"48.20000","4.01733","3910.02"
"48.40000","4.03316","3920.47"
"48.60000","4.05029","3931.72"
"48.80000","4.06712","3943"
"49.00000","4.08345","3953.86"
"49.20000","4.09978","3963.59"
"49.40000","4.11692","3974.82"
"49.60000","4.13324","3983.9"
"49.80000","4.14988","3993.26"
"50.00000","4.16681","4004.22"
"50.20000","4.18374","4013.65"
"50.40000","4.19977","4021.03"
"50.60000","4.21670","4030.02"
"50.80000","4.23384","4039.49"
"51.00000","4.25006","4047.09"
"51.20000","4.26649","4054.65"
"51.40000","4.28383","4062.72"
"51.60000","4.30026","4070.14"
"51.80000","4.31659","4076.1"
"52.00000","4.33352","4081.97"
"52.20000","4.35045","4087.52"
"52.40000","4.36648","4091.12"
"52.60000","4.38341","4094.58"
"52.80000","4.40015","4097.82"
"53.00000","4.41708","4099.97"
"53.20000","4.43300","4101.07"
"53.40000","4.45034","4102.21"
"53.60000","4.46697","4100.72"
"53.80000","4.48310","4098.19"
"54.00000","4.50023","4095.74"
"54.20000","4.51697","4091.56"
"54.40000","4.53350","4084.34"
"54.60000","4.55023","4078"
"54.80000","4.56726","4068.82"
"55.00000","4.58359","4058.93"
"55.20000","4.59972","4046.73"
"55.40000","4.61685","4035.17"
"55.60000","4.63358","4022.27"
"55.80000","4.64981","4008"
"56.00000","4.66644","3991.36"
"56.20000","4.68368","3977.88"
"56.40000","4.70001","3961.25"
"56.60000","4.71654","3942.97"
"56.80000","4.73377","3925.46"
"57.00000","4.75030","3906.72"
"57.20000","4.76673","3885.24"
"57.40000","4.78357","3863.3"
"57.60000","4.80040","3839.17"
"57.80000","4.81703","3810.69"
"58.00000","4.83326","3777.92"
"58.20000","4.85019","3737.74"
"58.40000","4.86702","3682.48"
"58.60000","4.88325","3578.44"
"58.68000","4.88990","2957.69"
"58.68800","4.89071","2190.36"
"58.69000","4.89091","1991.24"

File: Sequence_34.csv
General : Start date,"10/29/2024 10:30 AM"
General : End date,"10/29/2024 10:31 AM"
Specimen notes : Specimen note 1,"Day 2, green, 230, batch 6, seq 34"
Test : Rate 1,"5.00000",mm/min

Time,Extension,Load
(s),(mm),(N)
"0.00000","0.00000","0.22193"
"0.20000","0.00887","7.93729"
"0.40000","0.03246","51.90243"
"0.60000","0.04888","80.07642"
"0.80000","0.06662","108.824"
"1.00000","0.08346","136.823"
"1.20000","0.09989","162.553"
"1.40000","0.11662","189.959"
"1.60000","0.13365","216.309"
"1.80000","0.15038","243.202"
"2.00000","0.16661","269.475"
"2.20000","0.18385","296.875"
"2.40000","0.20058","324.155"
"2.60000","0.21671","349.753"
"2.80000","0.23344","375.217"
"3.00000","0.25047","403.013"
"3.20000","0.26660","427.75"
"3.40000","0.28323","454.051"
"3.60000","0.30026","479.474"
"3.80000","0.31679","505.17"
"4.00000","0.33312","529.701"
"4.20000","0.35006","554.591"
"4.40000","0.36679","579.728"
"4.60000","0.38342","604.868"
"4.80000","0.39995","629.022"
"5.00000","0.41708","654.592"
"5.20000","0.43361","678.693"
"5.40000","0.44994","701.615"
"5.60000","0.46678","727.205"
"5.80000","0.48371","750.607"
"6.00000","0.49994","773.815"
"6.20000","0.51667","796.616"
"6.40000","0.53350","819.576"
"6.60000","0.55003","841.922"
"6.80000","0.56626","864.346"
"7.00000","0.58360","888.541"
"7.20000","0.59982","909.421"
"7.40000","0.61686","932.67"
"7.60000","0.63369","953.963"
"7.80000","0.65042","976.331"
"8.00000","0.66655","996.177"
"8.20000","0.68328","1017.15"
"8.40000","0.70031","1038.7"
"8.60000","0.71695","1059.2"
"8.80000","0.73327","1078.82"
"9.00000","0.75031","1100.55"
"9.20000","0.76694","1119.57"
"9.40000","0.78307","1140.24"
"9.60000","0.79990","1159.84"
"9.80000","0.81693","1180.42"
"10.00000","0.83336","1200"
"10.20000","0.84979","1219.11"
"10.40000","0.86693","1239.48"
"10.60000","0.88386","1258.92"
"10.80000","0.89989","1277.26"
"11.00000","0.91702","1298.42"
"11.20000","0.93365","1314.63"
"11.40000","0.94998","1331.97"
"11.60000","0.96651","1349.69"
"11.80000","0.98375","1368.45"
"12.00000","0.99997","1385.41"
"12.20000","1.01620","1401.92"
"12.40000","1.03344","1419.95"
"12.60000","1.05007","1437.3"
"12.80000","1.06650","1453.28"
"13.00000","1.08343","1469.56"
"13.20000","1.10046","1486.6"
"13.40000","1.11679","1501.72"
"13.60000","1.13302","1517.71"
"13.80000","1.15066","1533.59"
"14.00000","1.16669","1550.37"
"14.20000","1.18322","1566.06"
"14.40000","1.20035","1580.29"
"14.60000","1.21708","1596.9"
"14.80000","1.23311","1611.42"
"15.00000","1.25004","1626.07"
"15.20000","1.26667","1642.16"
"15.40000","1.28371","1657.29"
"15.60000","1.29963","1671.87"
"15.80000","1.31687","1688.59"
"16.00000","1.33370","1702.97"
"16.20000","1.35003","1718.05"
"16.40000","1.36686","1733.21"
"16.60000","1.38380","1749.31"
"16.80000","1.40023","1764.18"
"17.00000","1.41665","1777.73"
"17.20000","1.43359","1793.74"
"17.40000","1.45012","1810.39"
"17.60000","1.46655","1825.22"
"17.80000","1.48328","1839.97"
"18.00000","1.50021","1856.96"
"18.20000","1.51664","1871.55"
"18.40000","1.53327","1886.88"
"18.60000","1.55041","1902.04"
"18.80000","1.56684","1917.6"
"19.00000","1.58327","1932.65"
"19.20000","1.60030","1948.7"
"19.40000","1.61713","1964.11"
"19.60000","1.63346","1978.56"
"19.80000","1.64989","1994.21"
"20.00000","1.66693","2009.96"
"20.20000","1.68356","2025.57"
"20.40000","1.69968","2040.22"
"20.60000","1.71682","2057.34"
"20.80000","1.73365","2071.34"
"21.00000","1.74978","2085.55"
"21.20000","1.76701","2101.31"
"21.40000","1.78364","2117.1"
"21.60000","1.80017","2132.95"
"21.80000","1.81670","2146.99"
"22.00000","1.83374","2163.54"
"22.20000","1.85027","2179.01"
"22.40000","1.86629","2193.39"
"22.60000","1.88343","2209.43"
"22.80000","1.90036","2224.64"
"23.00000","1.91649","2239.62"
"23.20000","1.93312","2254.62"
"23.40000","1.95026","2270.42"
"23.60000","1.96658","2285.29"
"23.80000","1.98332","2300.14"
"24.00000","2.00035","2315.7"
"24.20000","2.01708","2331.4"
"24.40000","2.03341","2346.13"
"24.60000","2.05024","2362.06"
"24.80000","2.06687","2377.14"
"25.00000","2.08340","2391.66"
"25.20000","2.09963","2406.58"
"25.40000","2.11697","2422.98"
"25.60000","2.13350","2438.55"
"25.80000","2.14963","2453.6"
"26.00000","2.16696","2469.79"
"26.20000","2.18329","2484.63"
"26.40000","2.19992","2500.16"
"26.60000","2.21696","2515.99"
"26.80000","2.23369","2530.34"
"27.00000","2.25012","2544.86"
"27.20000","2.26675","2561.1"
"27.40000","2.28358","2576.29"
"27.60000","2.30031","2591.17"
"27.80000","2.31644","2605.76"
"28.00000","2.33347","2621.27"
"28.20000","2.35021","2636.21"
"28.40000","2.36643","2651.62"
"28.60000","2.38327","2666.34"
"28.80000","2.40030","2682.97"
"29.00000","2.41693","2698.25"
"29.20000","2.43336","2712.95"
"29.40000","2.45009","2728.94"
"29.60000","2.46723","2744.83"
"29.80000","2.48335","2758.88"
"30.00000","2.49998","2772.5"
"30.20000","2.51692","2789.49"
"30.40000","2.53375","2804.51"
"30.60000","2.54988","2818.54"
"30.80000","2.56711","2835.34"
"31.00000","2.58314","2849.14"
"31.20000","2.59987","2864.49"
"31.40000","2.61670","2879.84"
"31.60000","2.63354","2895.12"
"31.80000","2.64986","2909.66"
"32.00000","2.66650","2924.73"
"32.20000","2.68373","2941.22"
"32.40000","2.70036","2955.13"
"32.60000","2.71649","2969.41"
"32.80000","2.73372","2985.66"
"33.00000","2.75046","2999.53"
"33.20000","2.76668","3014.61"
"33.40000","2.78332","3029.27"
"33.60000","2.80025","3045.71"
"33.80000","2.81668","3059.06"
"34.00000","2.83311","3073.96"
"34.20000","2.84974","3089.67"
"34.40000","2.86687","3104.64"
"34.60000","2.88300","3118.65"
"34.80000","2.90014","3134.12"
"35.00000","2.91697","3148.63"
"35.20000","2.93340","3163.03"
"35.40000","2.94983","3177.46"
"35.60000","2.96716","3192.53"
"35.80000","2.98339","3206.35"
"36.00000","3.00012","3221.65"
"36.20000","3.01695","3237.15"
"36.40000","3.03359","3251.75"
"36.60000","3.04981","3265.69"
"36.80000","3.06644","3280.72"
"37.00000","3.08378","3295.95"
"37.20000","3.10021","3310.43"
"37.40000","3.11654","3323.65"
"37.60000","3.13367","3339.48"
"37.80000","3.15010","3353.09"
"38.00000","3.16653","3367.27"
"38.20000","3.18347","3381.66"
"38.40000","3.20040","3397.18"
"38.60000","3.21663","3410.94"
"38.80000","3.23336","3424.92"
"39.00000","3.25009","3438.91"
"39.20000","3.26712","3453.7"
"39.40000","3.28305","3466.88"
"39.60000","3.30029","3482.43"
"39.80000","3.31692","3496.24"
"40.00000","3.33325","3510.26"
"40.20000","3.35018","3524.3"
"40.40000","3.36711","3538.66"
"40.60000","3.38344","3551.11"
"40.80000","3.39997","3564.93"
"41.00000","3.41711","3578.88"
"41.20000","3.43354","3592.02"
"41.40000","3.44986","3604.46"
"41.60000","3.46700","3618.59"
"41.80000","3.48383","3632.07"
"42.00000","3.49996","3644.79"
"42.20000","3.51649","3657.37"
"42.40000","3.53372","3671.13"
"42.60000","3.55015","3684.43"
"42.80000","3.56668","3697.01"
"43.00000","3.58352","3709.43"
"43.20000","3.60035","3722.52"
"43.40000","3.61658","3735.02"
"43.60000","3.63341","3747.28"
"43.80000","3.65014","3760.03"
"44.00000","3.66707","3771.68"
"44.20000","3.68310","3781.98"
"44.40000","3.70024","3793.92"
"44.60000","3.71666","3804.89"
"44.80000","3.73309","3815.77"
"45.00000","3.75023","3826.81"
"45.20000","3.76696","3837.7"
"45.40000","3.78319","3847.21"
"45.60000","3.80012","3856.69"
"45.80000","3.81716","3866.94"
"46.00000","3.83359","3875.07"
"46.20000","3.85012","3883.04"
"46.40000","3.86685","3891.12"
"46.60000","3.88378","3899.01"
"46.80000","3.90001","3905.55"
"47.00000","3.91654","3909.78"
"47.20000","3.93398","3915.42"
"47.40000","3.95000","3917.69"
"47.60000","3.96643","3918.8"
"47.80000","3.98367","3920.31"
"48.00000","4.00030","3919.67"
"48.20000","4.01653","3915.64"
"48.40000","4.03336","3910.24"
"48.60000","4.05039","3902.89"
"48.80000","4.06682","3890.17"
"49.00000","4.08315","3872.95"
"49.20000","4.10049","3846.69"
"49.40000","4.11722","3791.91"
"49.49600","4.12488","3095.18"
"49.50400","4.12568","2265.95"