Folder: 3D-Filament-Dyes/Data_Processing/Tensile-Data (part 3)

File: Sequence_7.csv
General : Start date,"10/22/2024 9:28 AM"
General : End date,"10/22/2024 9:29 AM"
Specimen notes : Specimen note 1,"red, 200, batch 7, seq 7"
Test : Rate 1,"5.00000",mm/min

Time,Extension,Load
(s),(mm),(N)
"0.00000","0.00000","0.54708"
"0.20000","0.01109","14.10676"
"0.40000","0.03296","60.00720"
"0.60000","0.04929","90.59365"
"0.80000","0.06673","121.936"
"1.00000","0.08356","141.849"
"1.20000","0.10019","172.188"
"1.40000","0.11662","200.605"
"1.60000","0.13375","231.478"
"1.80000","0.15038","261.122"
"2.00000","0.16671","291.315"
"2.20000","0.18365","320.695"
"2.40000","0.20048","350.672"
"2.60000","0.21681","380.464"
"2.80000","0.23334","409.404"
"3.00000","0.25037","439.384"
"3.20000","0.26700","468.852"
"3.40000","0.28343","496.757"
"3.60000","0.30037","526.457"
"3.80000","0.31720","555.804"
"4.00000","0.33343","582.07"
"4.20000","0.35006","611.004"
"4.40000","0.36689","640.561"
"4.60000","0.38342","669.448"
"4.80000","0.39995","697.408"
"5.00000","0.41688","725.032"
"5.20000","0.43392","754.357"
"5.40000","0.45004","780.844"
"5.60000","0.46688","809.633"
"5.80000","0.48371","838.473"
"6.00000","0.50014","865.555"
"6.20000","0.51667","893.423"
"6.40000","0.53380","921.341"
"6.60000","0.55053","948.151"
"6.80000","0.56656","975.953"
"7.00000","0.58370","1003"
"7.20000","0.60023","1031.35"
"7.40000","0.61686","1059.29"
"7.60000","0.63349","1084.9"
"7.80000","0.65052","1112.45"
"8.00000","0.66675","1139.05"
"8.20000","0.68308","1165.47"
"8.40000","0.70042","1193.58"
"8.60000","0.71705","1220.34"
"8.80000","0.73327","1246.76"
"9.00000","0.75021","1274.01"
"9.20000","0.76714","1300.37"
"9.40000","0.78337","1325.64"
"9.60000","0.80010","1351.74"
"9.80000","0.81703","1378.27"
"10.00000","0.83376","1403.8"
"10.20000","0.84979","1429.48"
"10.40000","0.86683","1456.11"
"10.60000","0.88376","1483.06"
"10.80000","0.89989","1508.34"
"11.00000","0.91692","1534.6"
"11.20000","0.93355","1560.7"
"11.40000","0.95028","1586.12"
"11.60000","0.96661","1611.39"
"11.80000","0.98405","1637.34"
"12.00000","1.00018","1663.22"
"12.20000","1.01671","1688.85"
"12.40000","1.03354","1713.98"
"12.60000","1.05047","1739.62"
"12.80000","1.06660","1763.82"
"13.00000","1.08323","1788.12"
"13.20000","1.10026","1813.26"
"13.40000","1.11689","1837.68"
"13.60000","1.13342","1861.97"
"13.80000","1.15056","1887.44"
"14.00000","1.16709","1911.7"
"14.20000","1.18332","1935.44"
"14.40000","1.20005","1959.82"
"14.60000","1.21688","1984.17"
"14.80000","1.23351","2008.69"
"15.00000","1.25024","2032.31"
"15.20000","1.26677","2055.72"
"15.40000","1.28381","2081.81"
"15.60000","1.29994","2103.49"
"15.80000","1.31707","2128.38"
"16.00000","1.33360","2151.69"
"16.20000","1.35033","2174.43"
"16.40000","1.36666","2196.62"
"16.60000","1.38380","2221.45"
"16.80000","1.40012","2244.31"
"17.00000","1.41665","2266.99"
"17.20000","1.43379","2290.62"
"17.40000","1.45032","2313.07"
"17.60000","1.46655","2335.38"
"17.80000","1.48338","2357.75"
"18.00000","1.50051","2380.28"
"18.20000","1.51694","2402.84"
"18.40000","1.53337","2424.42"
"18.60000","1.55031","2447.56"
"18.80000","1.56694","2470.31"
"19.00000","1.58337","2491.38"
"19.20000","1.60010","2514.1"
"19.40000","1.61733","2536.98"
"19.60000","1.63366","2558.68"
"19.80000","1.65019","2579.98"
"20.00000","1.66713","2602.87"
"20.20000","1.68376","2623.08"
"20.40000","1.69988","2644.07"
"20.60000","1.71702","2665.59"
"20.80000","1.73355","2687.97"
"21.00000","1.75008","2708.63"
"21.20000","1.76671","2730.26"
"21.40000","1.78385","2751.66"
"21.60000","1.80038","2772.59"
"21.80000","1.81691","2793.49"
"22.00000","1.83384","2813.94"
"22.20000","1.85037","2832.95"
"22.40000","1.86660","2853.85"
"22.60000","1.88343","2875.44"
"22.80000","1.90046","2896.53"
"23.00000","1.91669","2915.57"
"23.20000","1.93322","2857.68"
"23.40000","1.95036","2886.43"
"23.60000","1.96679","2909.58"
"23.80000","1.98322","2932"
"24.00000","2.00045","2955.74"
"24.20000","2.01728","2976.84"
"24.40000","2.03331","2997.91"
"24.60000","2.05024","3020.2"
"24.80000","2.06718","3041.17"
"25.00000","2.08391","3062.45"
"25.20000","2.09983","3083.04"
"25.40000","2.11717","3104.84"
"25.60000","2.13350","3124.2"
"25.80000","2.14993","3144.28"
"26.00000","2.16686","3165.1"
"26.20000","2.18359","3185.83"
"26.40000","2.20002","3204.77"
"26.60000","2.21655","3223.31"
"26.80000","2.23389","3243.51"
"27.00000","2.25032","3262.04"
"27.20000","2.26655","3280.96"
"27.40000","2.28398","3300.49"
"27.60000","2.30061","3319.28"
"27.80000","2.31664","3336.31"
"28.00000","2.33337","3354.59"
"28.20000","2.35041","3373.71"
"28.40000","2.36684","3391.44"
"28.60000","2.38337","3408.73"
"28.80000","2.40020","3426.65"
"29.00000","2.41713","3444.75"
"29.20000","2.43326","3461.91"
"29.40000","2.45029","3480.41"
"29.60000","2.46703","3496.76"
"29.80000","2.48356","3451.12"
"30.00000","2.49988","3470.95"
"30.20000","2.51702","3491.82"
"30.40000","2.53345","3511.31"
"30.60000","2.54988","3530.41"
"30.80000","2.56721","3549.75"
"31.00000","2.58374","3567.21"
"31.20000","2.60038","3561.61"
"31.40000","2.61680","3580.47"
"31.60000","2.63394","3599.33"
"31.80000","2.65007","3617.9"
"32.00000","2.66629","3634.92"
"32.20000","2.68353","3655.05"
"32.40000","2.70056","3672.75"
"32.60000","2.71669","3690.21"
"32.80000","2.73372","3708.4"
"33.00000","2.75076","3725.24"
"33.20000","2.76668","3742.34"
"33.40000","2.78321","3758.11"
"33.60000","2.80025","3775.06"
"33.80000","2.81708","3789.97"
"34.00000","2.83331","3806"
"34.20000","2.85024","3822.65"
"34.40000","2.86707","3837.43"
"34.60000","2.88320","3850.8"
"34.80000","2.90003","3864.78"
"35.00000","2.91707","3881.3"
"35.20000","2.93370","3895"
"35.40000","2.94993","3908.87"
"35.60000","2.96726","3923.86"
"35.80000","2.98359","3936.78"
"36.00000","3.00002","3949.32"
"36.20000","3.01695","3962.46"
"36.40000","3.03369","3975.26"
"36.60000","3.04981","3986.79"
"36.80000","3.06655","3997.71"
"37.00000","3.08388","4008.54"
"37.20000","3.10021","4017.5"
"37.40000","3.11644","4027.09"
"37.60000","3.13377","4036.45"
"37.80000","3.15041","4044.68"
"38.00000","3.16684","4049.16"
"38.20000","3.18347","4046.51"
"38.40000","3.20050","4035.35"
"38.60000","3.21723","3994.62"
"38.71200","3.22600","3584.96"
"38.72000","3.22671","2848.63"
"38.72600","3.22741","2195.5"

File: Sequence_8.csv
General : Start date,"10/22/2024 9:32 AM"
General : End date,"10/22/2024 9:33 AM"
Specimen notes : Specimen note 1,"blue, 200, batch 5, seq 8"
Test : Rate 1,"5.00000",mm/min

Time,Extension,Load
(s),(mm),(N)
"0.00000","0.00000","-0.37047"
"0.20000","0.00786","7.29710"
"0.40000","0.03175","51.79268"
"0.60000","0.04939","81.60658"
"0.80000","0.06683","110.88"
"1.00000","0.08336","138.297"
"1.20000","0.10029","167.943"
"1.40000","0.11722","186.02"
"1.60000","0.13325","212.809"
"1.80000","0.14988","243.18"
"2.00000","0.16691","273.07"
"2.20000","0.18355","301.447"
"2.40000","0.19987","329.574"
"2.60000","0.21711","359.633"
"2.80000","0.23344","388.025"
"3.00000","0.24997","416.968"
"3.20000","0.26670","445.302"
"3.40000","0.28383","475.388"
"3.60000","0.30006","503.68"
"3.80000","0.31669","532.299"
"4.00000","0.33373","561.016"
"4.20000","0.35046","589.763"
"4.40000","0.36649","617.512"
"4.60000","0.38352","647.564"
"4.80000","0.40025","676.319"
"5.00000","0.41628","703.701"
"5.20000","0.43341","733.056"
"5.40000","0.45035","762.319"
"5.60000","0.46698","789.222"
"5.80000","0.48351","817.585"
"6.00000","0.50024","845.921"
"6.20000","0.51717","874.833"
"6.40000","0.53310","900.696"
"6.60000","0.55023","929.246"
"6.80000","0.56696","958.147"
"7.00000","0.58339","984.949"
"7.20000","0.59992","1012.72"
"7.40000","0.61706","1040.39"
"7.60000","0.63349","1067.95"
"7.80000","0.65012","1095.4"
"8.00000","0.66695","1122.67"
"8.20000","0.68328","1149.98"
"8.40000","0.69981","1176.23"
"8.60000","0.71644","1203.47"
"8.80000","0.73368","1231.75"
"9.00000","0.75001","1257.38"
"9.20000","0.76654","1284.35"
"9.40000","0.78357","1311.73"
"9.60000","0.80030","1339.05"
"9.80000","0.81653","1363.02"
"10.00000","0.83346","1389.93"
"10.20000","0.85050","1417.79"
"10.40000","0.86662","1443.53"
"10.60000","0.88346","1468.98"
"10.80000","0.90009","1496.15"
"11.00000","0.91712","1523.23"
"11.20000","0.93325","1548.24"
"11.40000","0.95018","1574.85"
"11.60000","0.96671","1600.61"
"11.80000","0.98324","1626.45"
"12.00000","0.99977","1650.92"
"12.20000","1.01711","1678.55"
"12.40000","1.03354","1703.94"
"12.60000","1.04997","1729.12"
"12.80000","1.06690","1754.09"
"13.00000","1.08353","1779.89"
"13.20000","1.09986","1803.88"
"13.40000","1.11659","1827.61"
"13.60000","1.13363","1852.72"
"13.80000","1.15016","1878.05"
"14.00000","1.16659","1901.14"
"14.20000","1.18382","1927.06"
"14.40000","1.20015","1951.76"
"14.60000","1.21648","1974.48"
"14.80000","1.23351","1998.12"
"15.00000","1.25034","2024.18"
"15.20000","1.26657","2048.21"
"15.40000","1.28330","2071.39"
"15.60000","1.30004","2096.75"
"15.80000","1.31707","2120.37"
"16.00000","1.33310","2143.2"
"16.20000","1.35033","2167.76"
"16.40000","1.36686","2190.12"
"16.60000","1.38319","2213.46"
"16.80000","1.40012","2237.86"
"17.00000","1.41706","2261.84"
"17.20000","1.43339","2284.84"
"17.40000","1.44982","2307.38"
"17.60000","1.46695","2330.98"
"17.80000","1.48358","2349.39"
"18.00000","1.49971","2371.57"
"18.20000","1.51674","2394.83"
"18.40000","1.53368","2417.29"
"18.60000","1.54990","2437.01"
"18.80000","1.56653","2457.48"
"19.00000","1.58397","2480.05"
"19.20000","1.60010","2502.07"
"19.40000","1.61643","2524.71"
"19.60000","1.63346","2547.81"
"19.80000","1.65040","2570.66"
"20.00000","1.66662","2592.04"
"20.20000","1.68346","2613.7"
"20.40000","1.70019","2636.68"
"20.60000","1.71682","2658.84"
"20.80000","1.73315","2679.08"
"21.00000","1.75018","2701.18"
"21.20000","1.76671","2722.58"
"21.40000","1.78304","2743.4"
"21.60000","1.80028","2754.94"
"21.80000","1.81681","2776.34"
"22.00000","1.83364","2797.67"
"22.20000","1.85017","2819.39"
"22.40000","1.86690","2839.89"
"22.60000","1.88343","2859.86"
"22.80000","1.89996","2880.25"
"23.00000","1.91679","2900.93"
"23.20000","1.93363","2923.08"
"23.40000","1.94985","2942.49"
"23.60000","1.96669","2962.56"
"23.80000","1.98352","2983.08"
"24.00000","1.99985","3003.15"
"24.20000","2.01658","3021.23"
"24.40000","2.03351","3040.22"
"24.60000","2.05024","3057.73"
"24.80000","2.06657","3076.88"
"25.00000","2.08330","3095.71"
"25.20000","2.10054","3115.81"
"25.40000","2.11667","3135.14"
"25.60000","2.13330","3152.97"
"25.80000","2.15023","3171.76"
"26.00000","2.16686","3190.28"
"26.20000","2.18309","3207.63"
"26.40000","2.20043","3226.85"
"26.60000","2.21665","3243.17"
"26.80000","2.23328","3259.01"
"27.00000","2.24992","3276.83"
"27.20000","2.26675","3295.66"
"27.40000","2.28348","3311.54"
"27.60000","2.29981","3327.55"
"27.80000","2.31704","3344.93"
"28.00000","2.33388","3161.79"
"28.20000","2.34980","3180.01"
"28.40000","2.36684","3196.7"
"28.60000","2.38367","3202.55"
"28.80000","2.39990","3219.89"
"29.00000","2.41663","3237.65"
"29.20000","2.43356","3254.94"
"29.40000","2.45029","3271.13"
"29.60000","2.46642","3287.76"
"29.80000","2.48345","3305.87"
"30.00000","2.50059","3322.3"
"30.20000","2.51641","3337.34"
"30.40000","2.53335","3354.72"
"30.60000","2.55018","3371.07"
"30.80000","2.56671","3241.63"
"31.00000","2.58324","3255.8"
"31.20000","2.60058","3272.61"
"31.40000","2.61680","3288.02"
"31.60000","2.63344","3304.4"
"31.80000","2.65017","3320.07"
"32.00000","2.66700","3336.09"
"32.20000","2.68303","3351.08"
"32.40000","2.69976","3365.8"
"32.60000","2.71709","3380.95"
"32.80000","2.73372","3394.61"
"33.00000","2.74985","3408.27"
"33.20000","2.76709","3423.46"
"33.40000","2.78382","3437.55"
"33.60000","2.79964","3448.76"
"33.80000","2.81668","3463.02"
"34.00000","2.83361","3477.85"
"34.20000","2.85004","3490.1"
"34.40000","2.86677","3501.72"
"34.60000","2.88330","3514.47"
"34.80000","2.90024","3527.86"
"35.00000","2.91626","3538.12"
"35.20000","2.93350","3551.24"
"35.40000","2.95023","3562.81"
"35.60000","2.96676","3574.24"
"35.80000","2.98339","3584.37"
"36.00000","3.00053","3597.15"
"36.20000","3.01685","3606.33"
"36.40000","3.03349","3616.83"
"36.60000","3.05022","3627.34"
"36.80000","3.06685","3636.8"
"37.00000","3.08318","3645.69"
"37.20000","3.09971","3653.84"
"37.40000","3.11714","3663.62"
"37.60000","3.13337","3672.08"
"37.80000","3.14960","3679.01"
"38.00000","3.16684","3687.72"
"38.20000","3.18357","3695.25"
"38.40000","3.20010","3703.03"
"38.60000","3.21673","3710.38"
"38.80000","3.23386","3717.08"
"39.00000","3.25009","3723.18"
"39.20000","3.26662","3727.2"
"39.40000","3.28335","3732.82"
"39.60000","3.30039","3738.56"
"39.80000","3.31631","3740.85"
"40.00000","3.33355","3743.92"
"40.20000","3.35008","3746.18"
"40.40000","3.36631","3745.7"
"40.60000","3.38354","3744.14"
"40.80000","3.40027","3737.39"
"41.00000","3.41711","3704.16"
"41.20000","3.43354","3424.83"
"41.40000","3.45057","3330.17"
"41.60000","3.46700","3249.86"
"41.66800","3.47254","2715.14"
"41.67600","3.47325","2027.78"
"41.67800","3.47355","1848.53"

File: Sequence_9.csv
General : Start date,"10/22/2024 9:35 AM"
General : End date,"10/22/2024 9:36 AM"
Specimen notes : Specimen note 1,"red, 200, batch 1, seq 9"
Test : Rate 1,"5.00000",mm/min

Time,Extension,Load
(s),(mm),(N)
"0.00000","0.00000","0.95036"
"0.20000","0.00776","7.80777"
"0.40000","0.03256","56.46309"
"0.60000","0.04949","88.04853"
"0.80000","0.06652","116.409"
"1.00000","0.08366","133.74"
"1.20000","0.10009","164.666"
"1.40000","0.11652","192.642"
"1.60000","0.13345","222.656"
"1.80000","0.15059","252.175"
"2.00000","0.16691","281.065"
"2.20000","0.18334","307.847"
"2.40000","0.20008","336.276"
"2.60000","0.21691","364.992"
"2.80000","0.23303","392.507"
"3.00000","0.25017","421.734"
"3.20000","0.26700","450.036"
"3.40000","0.28323","477.5"
"3.60000","0.30006","506.721"
"3.80000","0.31710","535.099"
"4.00000","0.33332","562.132"
"4.20000","0.34985","590.173"
"4.40000","0.36699","618.461"
"4.60000","0.38382","647.695"
"4.80000","0.40005","675.35"
"5.00000","0.41678","703.234"
"5.20000","0.43382","730.765"
"5.40000","0.45014","757.989"
"5.60000","0.46647","785.328"
"5.80000","0.48351","813.232"
"6.00000","0.49994","840.865"
"6.20000","0.51637","867.134"
"6.40000","0.53370","895.734"
"6.60000","0.55013","922.594"
"6.80000","0.56686","950.064"
"7.00000","0.58360","977.174"
"7.20000","0.60033","1004.16"
"7.40000","0.61696","1030.84"
"7.60000","0.63319","1056.81"
"7.80000","0.65022","1084.31"
"8.00000","0.66705","1110.72"
"8.20000","0.68328","1136.13"
"8.40000","0.70001","1163.18"
"8.60000","0.71695","1190.82"
"8.80000","0.73348","1217.23"
"9.00000","0.74990","1242.91"
"9.20000","0.76694","1270.15"
"9.40000","0.78317","1295.86"
"9.60000","0.79980","1320.61"
"9.80000","0.81653","1347.53"
"10.00000","0.83376","1372.7"
"10.20000","0.84989","1398.15"
"10.40000","0.86662","1423.75"
"10.60000","0.88376","1449.71"
"10.80000","0.90019","1475.24"
"11.00000","0.91642","1501.4"
"11.20000","0.93345","1526.15"
"11.40000","0.95058","1551.07"
"11.60000","0.96641","1574.27"
"11.80000","0.98354","1600.36"
"12.00000","0.99997","1625.69"
"12.20000","1.01721","1649.37"
"12.40000","1.03303","1672.48"
"12.60000","1.05017","1698.73"
"12.80000","1.06690","1722.41"
"13.00000","1.08303","1746.15"
"13.20000","1.10016","1770.33"
"13.40000","1.11710","1794.88"
"13.60000","1.13342","1818.82"
"13.80000","1.14985","1842.07"
"14.00000","1.16699","1866.4"
"14.20000","1.18342","1889.32"
"14.40000","1.19975","1912.05"
"14.60000","1.21678","1935.99"
"14.80000","1.23381","1959.23"
"15.00000","1.24984","1980.83"
"15.20000","1.26677","2003.1"
"15.40000","1.28381","2026.44"
"15.60000","1.29994","2049.27"
"15.80000","1.31657","2072.2"
"16.00000","1.33370","2095.37"
"16.20000","1.35023","2116.97"
"16.40000","1.36656","2139.49"
"16.60000","1.38329","2162.48"
"16.80000","1.40033","2184.26"
"17.00000","1.41665","2206.71"
"17.20000","1.43339","2228.11"
"17.40000","1.45042","2251.34"
"17.60000","1.46685","2273.23"
"17.80000","1.48318","2294.63"
"18.00000","1.50051","2317.56"
"18.20000","1.51684","2339.68"
"18.40000","1.53347","2361.05"
"18.60000","1.55011","2382.12"
"18.80000","1.56694","2403.47"
"19.00000","1.58306","2423.81"
"19.20000","1.59970","2445.65"
"19.40000","1.61683","2467.97"
"19.60000","1.63366","2489.13"
"19.80000","1.64979","2510.54"
"20.00000","1.66693","2531.94"
"20.20000","1.68376","2551.89"
"20.40000","1.69988","2572.81"
"20.60000","1.71672","2593.46"
"20.80000","1.73365","2615.16"
"21.00000","1.75028","2636.08"
"21.20000","1.76661","2654.69"
"21.40000","1.78354","2675.69"
"21.60000","1.80048","2614.6"
"21.80000","1.81660","2636.9"
"22.00000","1.83334","2658.66"
"22.20000","1.85017","2682.67"
"22.40000","1.86670","2704.21"
"22.60000","1.88293","2725.2"
"22.80000","1.90036","2748.91"
"23.00000","1.91659","2768.9"
"23.20000","1.93352","2790.46"
"23.40000","1.95016","2811.85"
"23.60000","1.96699","2832.78"
"23.80000","1.98332","2852.4"
"24.00000","1.99985","2873.3"
"24.20000","2.01698","2894.98"
"24.40000","2.03371","2915.05"
"24.60000","2.04974","2933.06"
"24.80000","2.06677","2954.48"
"25.00000","2.08351","2973.67"
"25.20000","2.09973","2992.37"
"25.40000","2.11677","3012.98"
"25.60000","2.13370","3032.87"
"25.80000","2.15023","3051.11"
"26.00000","2.16666","3069.71"
"26.20000","2.18339","3089.33"
"26.40000","2.20053","3108.29"
"26.60000","2.21645","3125.59"
"26.80000","2.23359","3144.68"
"27.00000","2.25032","3163.1"
"27.20000","2.26645","3180.21"
"27.40000","2.28328","3197.93"
"27.60000","2.30031","3216.89"
"27.80000","2.31654","3233.61"
"28.00000","2.33307","3252.03"
"28.20000","2.35010","3196.5"
"28.40000","2.36704","3219.75"
"28.60000","2.38306","3239.57"
"28.80000","2.40010","3259.18"
"29.00000","2.41723","3279.71"
"29.20000","2.43356","3300.25"
"29.40000","2.44979","3318.04"
"29.60000","2.46723","3338.07"
"29.80000","2.48345","3355.63"
"30.00000","2.49978","3374.97"
"30.20000","2.51692","3393.11"
"30.40000","2.53365","3410.63"
"30.60000","2.54978","3428.95"
"30.80000","2.56671","3446.71"
"31.00000","2.58344","3465.06"
"31.20000","2.60038","3482.75"
"31.40000","2.61630","3498.13"
"31.60000","2.63364","3515.86"
"31.80000","2.65017","3532.75"
"32.00000","2.66660","3549.98"
"32.20000","2.68343","3565.77"
"32.40000","2.70036","3582.68"
"32.60000","2.71689","3597.14"
"32.80000","2.73342","3611.62"
"33.00000","2.75036","3626.75"
"33.20000","2.76689","3641.6"
"33.40000","2.78311","3656.6"
"33.60000","2.80005","3670.36"
"33.80000","2.81708","3685.61"
"34.00000","2.83351","3700.01"
"34.20000","2.85004","3713.05"
"34.40000","2.86718","3728.19"
"34.60000","2.88340","3741.79"
"34.80000","2.89983","3754.15"
"35.00000","2.91687","3768.68"
"35.20000","2.93370","3782.56"
"35.40000","2.94993","3795.45"
"35.60000","2.96666","3809.46"
"35.80000","2.98349","3822.11"
"36.00000","3.00022","3759.39"
"36.20000","3.01645","3774.11"
"36.40000","3.03359","3791.69"
"36.60000","3.05032","3806.55"
"36.80000","3.06644","3820.85"
"37.00000","3.08358","3835.72"
"37.20000","3.10031","3850.54"
"37.40000","3.11694","3863.5"
"37.60000","3.13327","3851.65"
"37.80000","3.15020","3844.99"
"38.00000","3.16673","3861.01"
"38.20000","3.18306","3874.22"
"38.40000","3.20010","3888.43"
"38.60000","3.21723","3902.82"
"38.80000","3.23306","3913.58"
"39.00000","3.24999","3926.1"
"39.20000","3.26712","3938.25"
"39.40000","3.28335","3947.43"
"39.60000","3.29998","3958.05"
"39.80000","3.31692","3966.74"
"40.00000","3.33395","3974.88"
"40.20000","3.34978","3978.91"
"40.40000","3.36671","3984.28"
"40.60000","3.38364","3988.02"
"40.80000","3.40007","3988.31"
"41.00000","3.41650","3984.98"
"41.20000","3.43374","3979"
"41.40000","3.45027","3962.5"
"41.60000","3.46629","3920.12"
"41.70600","3.47557","3481.34"
"41.71400","3.47637","2709.93"
"41.71800","3.47678","2272.72"

File: Sequence_10.csv
General : Start date,"10/22/2024 9:38 AM"
General : End date,"10/22/2024 9:39 AM"
Specimen notes : Specimen note 1,"green, 200, batch 6, seq 10"
Test : Rate 1,"5.00000",mm/min

Time,Extension,Load
(s),(mm),(N)
"0.00000","-0.00020","1.16497"
"0.20000","0.00947","10.76237"
"0.40000","0.03286","56.41679"
"0.60000","0.04939","84.78900"
"0.80000","0.06673","112.228"
"1.00000","0.08356","139.465"
"1.20000","0.09979","155.711"
"1.40000","0.11642","182.675"
"1.60000","0.13365","210.991"
"1.80000","0.14998","238.515"
"2.00000","0.16661","267.534"
"2.20000","0.18355","294.766"
"2.40000","0.20018","323.024"
"2.60000","0.21640","351.389"
"2.80000","0.23324","379.162"
"3.00000","0.25027","407.911"
"3.20000","0.26660","435.571"
"3.40000","0.28313","461.633"
"3.60000","0.29996","488.373"
"3.80000","0.31690","515.554"
"4.00000","0.33292","542.096"
"4.20000","0.34996","569.506"
"4.40000","0.36669","597.434"
"4.60000","0.38322","624.506"
"4.80000","0.39985","651.176"
"5.00000","0.41688","678.103"
"5.20000","0.43311","704.599"
"5.40000","0.44984","731.053"
"5.60000","0.46678","756.648"
"5.80000","0.48361","783.974"
"6.00000","0.49994","810.572"
"6.20000","0.51657","836.125"
"6.40000","0.53340","863.047"
"6.60000","0.54993","889.047"
"6.80000","0.56656","914.373"
"7.00000","0.58329","941.045"
"7.20000","0.59992","967.926"
"7.40000","0.61615","992.48"
"7.60000","0.63339","1018.11"
"7.80000","0.65002","1044.47"
"8.00000","0.66675","1070.46"
"8.20000","0.68338","1095.5"
"8.40000","0.70001","1122.11"
"8.60000","0.71695","1146.33"
"8.80000","0.73297","1171.67"
"9.00000","0.75021","1197.24"
"9.20000","0.76684","1221.71"
"9.40000","0.78307","1245.82"
"9.60000","0.79960","1271.33"
"9.80000","0.81673","1296.8"
"10.00000","0.83326","1321.84"
"10.20000","0.84989","1346.13"
"10.40000","0.86672","1371.03"
"10.60000","0.88325","1394.28"
"10.80000","0.89958","1417.97"
"11.00000","0.91631","1443.78"
"11.20000","0.93375","1468.94"
"11.40000","0.94988","1492.02"
"11.60000","0.96651","1517.31"
"11.80000","0.98365","1542.5"
"12.00000","1.00018","1565.42"
"12.20000","1.01620","1588.2"
"12.40000","1.03334","1612.1"
"12.60000","1.05017","1635.84"
"12.80000","1.06630","1659.2"
"13.00000","1.08323","1682.78"
"13.20000","1.09986","1705.96"
"13.40000","1.11699","1730.15"
"13.60000","1.13282","1751.2"
"13.80000","1.15006","1775.99"
"14.00000","1.16689","1797.51"
"14.20000","1.18281","1820.83"
"14.40000","1.20005","1843.02"
"14.60000","1.21678","1866.05"
"14.80000","1.23321","1888.92"
"15.00000","1.24974","1912.18"
"15.20000","1.26677","1933.89"
"15.40000","1.28320","1955.28"
"15.60000","1.29963","1976.85"
"15.80000","1.31657","1999.06"
"16.00000","1.33350","2020.83"
"16.20000","1.34973","2042.57"
"16.40000","1.36656","2064.89"
"16.60000","1.38380","2088.16"
"16.80000","1.39972","2109.97"
"17.00000","1.41635","2130.72"
"17.20000","1.43349","2152.56"
"17.40000","1.45012","2174.56"
"17.60000","1.46655","2196.04"
"17.80000","1.48318","2216.74"
"18.00000","1.50011","2237.85"
"18.20000","1.51674","2259.25"
"18.40000","1.53307","2279.6"
"18.60000","1.55021","2302.36"
"18.80000","1.56674","2322.63"
"19.00000","1.58306","2342.22"
"19.20000","1.60030","2363.23"
"19.40000","1.61653","2384.87"
"19.60000","1.63326","2404.91"
"19.80000","1.64999","2424.85"
"20.00000","1.66672","2445.37"
"20.20000","1.68325","2460.61"
"20.40000","1.69968","2479.96"
"20.60000","1.71672","2502.19"
"20.80000","1.73335","2522.29"
"21.00000","1.74968","2540.68"
"21.20000","1.76661","2560.68"
"21.40000","1.78364","2581.23"
"21.60000","1.79987","2600.25"
"21.80000","1.81640","2618.81"
"22.00000","1.83334","2639.94"
"22.20000","1.85027","2659.06"
"22.40000","1.86650","2676.94"
"22.60000","1.88343","2696.95"
"22.80000","1.90026","2716.19"
"23.00000","1.91659","2734.41"
"23.20000","1.93312","2753.59"
"23.40000","1.94985","2772.4"
"23.60000","1.96658","2789.4"
"23.80000","1.98281","2807.75"
"24.00000","2.00015","2828.41"
"24.20000","2.01648","2846.28"
"24.40000","2.03341","2859.88"
"24.60000","2.05014","2877.69"
"24.80000","2.06687","2896.23"
"25.00000","2.08310","2913.84"
"25.20000","2.09973","2932.24"
"25.40000","2.11677","2949.63"
"25.60000","2.13350","2965.24"
"25.80000","2.14963","2982.61"
"26.00000","2.16676","3001.75"
"26.20000","2.18349","3018.99"
"26.40000","2.19952","3035.16"
"26.60000","2.21645","3052.51"
"26.80000","2.23349","3070.06"
"27.00000","2.25012","3086.94"
"27.20000","2.26645","3103.94"
"27.40000","2.28328","3121.83"
"27.60000","2.30031","3137.92"
"27.80000","2.31634","3153.34"
"28.00000","2.33347","3170.44"
"28.20000","2.35010","3186.34"
"28.40000","2.36643","3121.89"
"28.60000","2.38306","3119.13"
"28.80000","2.40020","3138.84"
"29.00000","2.41643","3157.64"
"29.20000","2.43306","3176.33"
"29.40000","2.44999","3195.23"
"29.60000","2.46682","3213.44"
"29.80000","2.48305","3229.79"
"30.00000","2.49998","3247.24"
"30.20000","2.51722","3235.22"
"30.40000","2.53345","3253.2"
"30.60000","2.54968","3268.95"
"30.80000","2.56691","3287.56"
"31.00000","2.58334","3301.19"
"31.20000","2.59977","3316.73"
"31.40000","2.61670","3332.72"
"31.60000","2.63344","3348.12"
"31.80000","2.64976","3363.19"
"32.00000","2.66629","3377.39"
"32.20000","2.68333","3392.93"
"32.40000","2.70026","3406.91"
"32.60000","2.71619","3419.65"
"32.80000","2.73352","3433.65"
"33.00000","2.74995","3446.76"
"33.20000","2.76648","3453"
"33.40000","2.78332","3462.73"
"33.60000","2.80025","3475.58"
"33.80000","2.81668","3486.78"
"34.00000","2.83321","3496.58"
"34.20000","2.85004","3505.99"
"34.40000","2.86677","3514.03"
"34.60000","2.88300","3521.98"
"34.80000","2.89983","3529.69"
"35.00000","2.91687","3535.8"
"35.20000","2.93330","3538.31"
"35.40000","2.94973","3538.69"
"35.60000","2.96716","3535.17"
"35.80000","2.98339","3520.24"
"36.00000","2.99962","3484.43"
"36.20000","3.01675","3391.95"
"36.40000","3.03359","3252.78"
"36.60000","3.05002","3122.69"
"36.66600","3.05536","2566.82"
"36.67400","3.05616","1901.24"
"36.67600","3.05637","1729.43"