Folder: 3D-Filament-Dyes/Data_Processing/Tensile-Data (part 16)

File: Sequence_47.csv
General : Start date,"11/5/2024 8:27 AM"
General : End date,"11/5/2024 8:27 AM"
Specimen notes : Specimen note 1,"Day 3, black, 230, batch 16, seq 47"
Test : Rate 1,"5.00000",mm/min

Time,Extension,Load
(s),(mm),(N)
"0.00000","0.00000","0.13510"
"0.20000","0.01089","13.69400"
"0.40000","0.03286","57.90125"
"0.60000","0.04959","86.68402"
"0.80000","0.06673","115.437"
"1.00000","0.08376","143.291"
"1.20000","0.10019","173.465"
"1.40000","0.11672","201.733"
"1.60000","0.13395","230.347"
"1.80000","0.15018","257.126"
"2.00000","0.16661","284.225"
"2.20000","0.18365","313.471"
"2.40000","0.19997","339.814"
"2.60000","0.21681","367.939"
"2.80000","0.23354","396.151"
"3.00000","0.25057","421.76"
"3.20000","0.26710","447.146"
"3.40000","0.28353","473.46"
"3.60000","0.30037","499.139"
"3.80000","0.31710","526.254"
"4.00000","0.33332","550.344"
"4.20000","0.35016","576.688"
"4.40000","0.36699","603.734"
"4.60000","0.38352","628.34"
"4.80000","0.40005","653.088"
"5.00000","0.41708","679.049"
"5.20000","0.43331","702.404"
"5.40000","0.45035","725.069"
"5.60000","0.46698","749.642"
"5.80000","0.48391","775.39"
"6.00000","0.50024","797.605"
"6.20000","0.51667","820.692"
"6.40000","0.53380","844.876"
"6.60000","0.55013","867.08"
"6.80000","0.56636","888.111"
"7.00000","0.58370","910.378"
"7.20000","0.60023","933.068"
"7.40000","0.61635","952.766"
"7.60000","0.63349","974.325"
"7.80000","0.65022","995.668"
"8.00000","0.66695","1016.17"
"8.20000","0.68348","1037.03"
"8.40000","0.70031","1056.56"
"8.60000","0.71735","1075.78"
"8.80000","0.73327","1092.83"
"9.00000","0.75031","1111.16"
"9.20000","0.76704","1128.75"
"9.40000","0.78337","1146.46"
"9.60000","0.80000","1165.03"
"9.80000","0.81703","1184.08"
"10.00000","0.83356","1201.24"
"10.20000","0.84999","1219.33"
"10.40000","0.86693","1237.89"
"10.60000","0.88356","1255.63"
"10.80000","0.89999","1273.98"
"11.00000","0.91642","1292.51"
"11.20000","0.93395","1311.43"
"11.40000","0.94998","1328.33"
"11.60000","0.96691","1345.64"
"11.80000","0.98395","1363.66"
"12.00000","1.00048","1382.14"
"12.20000","1.01660","1398.7"
"12.40000","1.03374","1417.03"
"12.60000","1.05057","1434.99"
"12.80000","1.06670","1451.89"
"13.00000","1.08333","1470.04"
"13.20000","1.10026","1488.53"
"13.40000","1.11689","1506.24"
"13.60000","1.13312","1521.17"
"13.80000","1.15046","1536.6"
"14.00000","1.16719","1553.36"
"14.20000","1.18332","1569.01"
"14.40000","1.20025","1586.63"
"14.60000","1.21688","1602.43"
"14.80000","1.23361","1620.73"
"15.00000","1.24994","1636.68"
"15.20000","1.26708","1653.6"
"15.40000","1.28361","1669.49"
"15.60000","1.30004","1684.75"
"15.80000","1.31687","1701.76"
"16.00000","1.33380","1718.33"
"16.20000","1.35003","1733.35"
"16.40000","1.36686","1750.61"
"16.60000","1.38370","1766.92"
"16.80000","1.40023","1783.37"
"17.00000","1.41686","1799.59"
"17.20000","1.43369","1817.25"
"17.40000","1.45042","1833.69"
"17.60000","1.46665","1848.08"
"17.80000","1.48318","1865.05"
"18.00000","1.50011","1881.84"
"18.20000","1.51664","1898.77"
"18.40000","1.53317","1914.18"
"18.60000","1.55041","1930.5"
"18.80000","1.56704","1948.03"
"19.00000","1.58327","1963.13"
"19.20000","1.60030","1981.16"
"19.40000","1.61683","1998.71"
"19.60000","1.63366","2015.28"
"19.80000","1.64999","2032.04"
"20.00000","1.66713","2049.39"
"20.20000","1.68346","2065.77"
"20.40000","1.70009","2083.38"
"20.60000","1.71692","2099.71"
"20.80000","1.73385","2116.01"
"21.00000","1.74998","2132.99"
"21.20000","1.76701","2149.06"
"21.40000","1.78364","2165.25"
"21.60000","1.80017","2180.43"
"21.80000","1.81670","2196.38"
"22.00000","1.83354","2213.57"
"22.20000","1.85047","2229.95"
"22.40000","1.86650","2244.95"
"22.60000","1.88363","2263.93"
"22.80000","1.90056","2280.4"
"23.00000","1.91679","2296.42"
"23.20000","1.93342","2313.01"
"23.40000","1.95036","2330.04"
"23.60000","1.96679","2345.98"
"23.80000","1.98301","2361.82"
"24.00000","2.00055","2379.23"
"24.20000","2.01688","2396.27"
"24.40000","2.03351","2413.91"
"24.60000","2.05014","2430.57"
"24.80000","2.06738","2448.43"
"25.00000","2.08371","2464.23"
"25.20000","2.10004","2480.27"
"25.40000","2.11717","2497.71"
"25.60000","2.13370","2514.28"
"25.80000","2.14993","2529.8"
"26.00000","2.16696","2546.7"
"26.20000","2.18359","2564.09"
"26.40000","2.19992","2579.11"
"26.60000","2.21675","2596.51"
"26.80000","2.23359","2614.3"
"27.00000","2.25032","2629.39"
"27.20000","2.26655","2645.03"
"27.40000","2.28368","2663.68"
"27.60000","2.30051","2680.46"
"27.80000","2.31654","2696.81"
"28.00000","2.33378","2713.8"
"28.20000","2.35061","2731.14"
"28.40000","2.36694","2746.67"
"28.60000","2.38327","2761.15"
"28.80000","2.40020","2777.26"
"29.00000","2.41663","2794.37"
"29.20000","2.43326","2811.44"
"29.40000","2.45009","2827.78"
"29.60000","2.46692","2844.39"
"29.80000","2.48345","2861.14"
"30.00000","2.49998","2878.88"
"30.20000","2.51732","2896.36"
"30.40000","2.53355","2909.83"
"30.60000","2.55018","2926.91"
"30.80000","2.56691","2943.79"
"31.00000","2.58374","2959.66"
"31.20000","2.59997","2975.97"
"31.40000","2.61680","2992.84"
"31.60000","2.63384","3008.86"
"31.80000","2.65037","3025.42"
"32.00000","2.66650","3040.05"
"32.20000","2.68373","3057.06"
"32.40000","2.70036","3074.43"
"32.60000","2.71639","3090.58"
"32.80000","2.73372","3106.83"
"33.00000","2.75036","3123.35"
"33.20000","2.76679","3140.1"
"33.40000","2.78342","3155.31"
"33.60000","2.80035","3172.04"
"33.80000","2.81708","3186.78"
"34.00000","2.83341","3202.01"
"34.20000","2.85034","3219.32"
"34.40000","2.86707","3234.97"
"34.60000","2.88320","3250.47"
"34.80000","2.89993","3266.62"
"35.00000","2.91727","3283.53"
"35.20000","2.93360","3299.02"
"35.40000","2.95013","3314.94"
"35.60000","2.96706","3330.16"
"35.80000","2.98359","3346.25"
"36.00000","3.00002","3362.04"
"36.20000","3.01695","3377.41"
"36.40000","3.03389","3392.83"
"36.60000","3.05032","3408.67"
"36.80000","3.06665","3423.54"
"37.00000","3.08378","3439.74"
"37.20000","3.10031","3455.32"
"37.40000","3.11644","3470.06"
"37.60000","3.13377","3486.22"
"37.80000","3.15051","3501.38"
"38.00000","3.16663","3514.59"
"38.20000","3.18347","3529.5"
"38.40000","3.20030","3546.24"
"38.60000","3.21723","3562.01"
"38.80000","3.23326","3576.06"
"39.00000","3.25049","3593.27"
"39.20000","3.26702","3607.04"
"39.40000","3.28335","3620.96"
"39.60000","3.30018","3636.16"
"39.80000","3.31712","3651.03"
"40.00000","3.33304","3664.66"
"40.20000","3.34998","3680.72"
"40.40000","3.36701","3695.92"
"40.60000","3.38354","3710.16"
"40.80000","3.40017","3724.05"
"41.00000","3.41701","3737.58"
"41.20000","3.43384","3752.12"
"41.40000","3.45017","3765.64"
"41.60000","3.46680","3776.93"
"41.80000","3.48373","3791.31"
"42.00000","3.50026","3803.54"
"42.20000","3.51669","3814.39"
"42.40000","3.53362","3826.39"
"42.60000","3.55025","3837.37"
"42.80000","3.56668","3847.6"
"43.00000","3.58352","3856.1"
"43.20000","3.60005","3866.16"
"43.40000","3.61698","3875.76"
"43.60000","3.63341","3882.97"
"43.80000","3.65054","3890.95"
"44.00000","3.66707","3894.71"
"44.20000","3.68320","3897.77"
"44.40000","3.70034","3899.92"
"44.60000","3.71707","3899.29"
"44.80000","3.73340","3892.87"
"45.00000","3.75033","3884.64"
"45.20000","3.76706","3866.28"
"45.40000","3.78329","3829.16"
"45.60000","3.80002","3740.94"
"45.65800","3.80506","3059.92"
"45.66600","3.80597","2240.5"

File: Sequence_48.csv
General : Start date,"11/5/2024 8:28 AM"
General : End date,"11/5/2024 8:29 AM"
Specimen notes : Specimen note 1,"Day 3, black, 215, batch 19, seq 48"
Test : Rate 1,"5.00000",mm/min

Time,Extension,Load
(s),(mm),(N)
"0.00000","-0.00010","-0.05608"
"0.20000","0.01391","19.43253"
"0.40000","0.03407","59.31707"
"0.60000","0.05140","88.09985"
"0.80000","0.06824","115.16"
"1.00000","0.08517","143.056"
"1.20000","0.10200","170.648"
"1.40000","0.11823","197.245"
"1.60000","0.13506","224.943"
"1.80000","0.15210","252.951"
"2.00000","0.16812","278.951"
"2.20000","0.18506","306.975"
"2.40000","0.20179","334.124"
"2.60000","0.21832","360.622"
"2.80000","0.23505","386.627"
"3.00000","0.25188","413.361"
"3.20000","0.26882","440.186"
"3.40000","0.28504","464.218"
"3.60000","0.30188","488.237"
"3.80000","0.31861","513.732"
"4.00000","0.33524","538.537"
"4.20000","0.35137","560.094"
"4.40000","0.36860","584.954"
"4.60000","0.38523","608.674"
"4.80000","0.40156","630.453"
"5.00000","0.41850","651.999"
"5.20000","0.43482","673.477"
"5.40000","0.45186","695.672"
"5.60000","0.46829","715.17"
"5.80000","0.48542","735.795"
"6.00000","0.50205","755.867"
"6.20000","0.51828","775.352"
"6.40000","0.53501","795.305"
"6.60000","0.55205","815.881"
"6.80000","0.56807","832.334"
"7.00000","0.58491","852.348"
"7.20000","0.60184","871.621"
"7.40000","0.61807","889.233"
"7.60000","0.63470","906.381"
"7.80000","0.65173","926.112"
"8.00000","0.66866","943.062"
"8.20000","0.68489","959.354"
"8.40000","0.70173","976.496"
"8.60000","0.71876","994.086"
"8.80000","0.73509","1009.71"
"9.00000","0.75142","1027.7"
"9.20000","0.76845","1044.39"
"9.40000","0.78528","1061.77"
"9.60000","0.80131","1079.2"
"9.80000","0.81855","1095.81"
"10.00000","0.83508","1111.73"
"10.20000","0.85171","1128.58"
"10.40000","0.86824","1144.98"
"10.60000","0.88527","1160.93"
"10.80000","0.90170","1177.33"
"11.00000","0.91803","1192.83"
"11.20000","0.93516","1209.45"
"11.40000","0.95179","1225.73"
"11.60000","0.96832","1241.08"
"11.80000","0.98526","1257.43"
"12.00000","1.00229","1273.27"
"12.20000","1.01822","1288.18"
"12.40000","1.03515","1303.85"
"12.60000","1.05198","1319.9"
"12.80000","1.06851","1334.78"
"13.00000","1.08464","1350.77"
"13.20000","1.10178","1368.28"
"13.40000","1.11851","1383.96"
"13.60000","1.13473","1398.72"
"13.80000","1.15167","1415.21"
"14.00000","1.16870","1430.63"
"14.20000","1.18523","1445.47"
"14.40000","1.20156","1461.71"
"14.60000","1.21860","1478.33"
"14.80000","1.23513","1494.07"
"15.00000","1.25176","1508.64"
"15.20000","1.26829","1522.97"
"15.40000","1.28512","1538.78"
"15.60000","1.30175","1554.81"
"15.80000","1.31818","1569.7"
"16.00000","1.33521","1585.72"
"16.20000","1.35184","1599.9"
"16.40000","1.36827","1615.42"
"16.60000","1.38521","1632.05"
"16.80000","1.40184","1647.68"
"17.00000","1.41817","1662.94"
"17.20000","1.43530","1678.66"
"17.40000","1.45193","1695.14"
"17.60000","1.46856","1710.79"
"17.80000","1.48459","1723.83"
"18.00000","1.50162","1740.77"
"18.20000","1.51846","1757.83"
"18.40000","1.53458","1772.84"
"18.60000","1.55172","1789.37"
"18.80000","1.56855","1805.02"
"19.00000","1.58508","1821.17"
"19.20000","1.60151","1837.16"
"19.40000","1.61854","1852.84"
"19.60000","1.63518","1869.31"
"19.80000","1.65160","1884.81"
"20.00000","1.66844","1901.03"
"20.20000","1.68517","1916.67"
"20.40000","1.70160","1931.2"
"20.60000","1.71813","1947.71"
"20.80000","1.73536","1964.16"
"21.00000","1.75179","1979.65"
"21.20000","1.76832","1996.47"
"21.40000","1.78516","2012.71"
"21.60000","1.80199","2029.64"
"21.80000","1.81801","2045.24"
"22.00000","1.83505","2061.64"
"22.20000","1.85188","2079.66"
"22.40000","1.86841","2096.63"
"22.60000","1.88474","2113.12"
"22.80000","1.90198","2129.34"
"23.00000","1.91871","2146.11"
"23.20000","1.93463","2163.38"
"23.40000","1.95197","2179.05"
"23.60000","1.96860","2196"
"23.80000","1.98493","2212.69"
"24.00000","2.00166","2228.75"
"24.20000","2.01839","2246.72"
"24.40000","2.03523","2262.94"
"24.60000","2.05165","2278.47"
"24.80000","2.06869","2295.04"
"25.00000","2.08532","2311.58"
"25.20000","2.10155","2328.38"
"25.40000","2.11828","2344.13"
"25.60000","2.13551","2361.41"
"25.80000","2.15154","2377.83"
"26.00000","2.16827","2392.97"
"26.20000","2.18541","2408.92"
"26.40000","2.20164","2425.49"
"26.60000","2.21796","2440.95"
"26.80000","2.23510","2456.75"
"27.00000","2.25193","2474.08"
"27.20000","2.26836","2490.64"
"27.40000","2.28499","2505.77"
"27.60000","2.30193","2522.23"
"27.80000","2.31856","2538.72"
"28.00000","2.33488","2553.82"
"28.20000","2.35222","2570.17"
"28.40000","2.36855","2586.31"
"28.60000","2.38488","2602.99"
"28.80000","2.40161","2618.66"
"29.00000","2.41814","2634.98"
"29.20000","2.43497","2651.13"
"29.40000","2.45130","2665.41"
"29.60000","2.46854","2683.66"
"29.80000","2.48517","2700.12"
"30.00000","2.50160","2715.38"
"30.20000","2.51843","2732.05"
"30.40000","2.53516","2747.14"
"30.60000","2.55149","2762.29"
"30.80000","2.56842","2778.86"
"31.00000","2.58536","2794.31"
"31.20000","2.60169","2811.03"
"31.40000","2.61801","2825.95"
"31.60000","2.63535","2843.55"
"31.80000","2.65218","2858.54"
"32.00000","2.66821","2873.59"
"32.20000","2.68504","2891.88"
"32.40000","2.70187","2907.39"
"32.60000","2.71840","2923"
"32.80000","2.73463","2938.83"
"33.00000","2.75197","2955.75"
"33.20000","2.76840","2971.26"
"33.40000","2.78483","2985.69"
"33.60000","2.80176","3003.91"
"33.80000","2.81869","3019.33"
"34.00000","2.83522","3035.17"
"34.20000","2.85145","3051.86"
"34.40000","2.86869","3067.52"
"34.60000","2.88512","3083.93"
"34.80000","2.90124","3100.32"
"35.00000","2.91838","3117.49"
"35.20000","2.93521","3133.3"
"35.40000","2.95164","3148.7"
"35.60000","2.96847","3166.9"
"35.80000","2.98520","3181.41"
"36.00000","3.00173","3197.37"
"36.20000","3.01816","3213.39"
"36.40000","3.03520","3229.23"
"36.60000","3.05203","3245.43"
"36.80000","3.06816","3261"
"37.00000","3.08499","3278.01"
"37.20000","3.10223","3294.3"
"37.40000","3.11805","3310.48"
"37.60000","3.13498","3326.75"
"37.80000","3.15212","3341.43"
"38.00000","3.16855","3356.68"
"38.20000","3.18478","3372.51"
"38.40000","3.20191","3389.15"
"38.60000","3.21844","3405.38"
"38.80000","3.23507","3420.06"
"39.00000","3.25160","3436.08"
"39.20000","3.26874","3452.14"
"39.40000","3.28507","3466.85"
"39.60000","3.30160","3482.81"
"39.80000","3.31873","3497.78"
"40.00000","3.33486","3514.78"
"40.20000","3.35129","3529.03"
"40.40000","3.36842","3544.73"
"40.60000","3.38505","3559.7"
"40.80000","3.40148","3575.52"
"41.00000","3.41842","3589.9"
"41.20000","3.43535","3605.12"
"41.40000","3.45188","3619.78"
"41.60000","3.46811","3634.19"
"41.80000","3.48524","3650.62"
"42.00000","3.50197","3665.28"
"42.20000","3.51820","3680.26"
"42.40000","3.53524","3695.95"
"42.60000","3.55187","3709.64"
"42.80000","3.56850","3724.05"
"43.00000","3.58483","3737.09"
"43.20000","3.60166","3753.6"
"43.40000","3.61849","3767.42"
"43.60000","3.63502","3781.9"
"43.80000","3.65196","3795.48"
"44.00000","3.66859","3808.65"
"44.20000","3.68512","3823.09"
"44.40000","3.70155","3836.7"
"44.60000","3.71878","3850.02"
"44.80000","3.73501","3863.18"
"45.00000","3.75174","3877.26"
"45.20000","3.76847","3891.68"
"45.40000","3.78510","3904.42"
"45.60000","3.80123","3916.99"
"45.80000","3.81847","3931"
"46.00000","3.83520","3943.02"
"46.20000","3.85183","3956.51"
"46.40000","3.86806","3967.7"
"46.60000","3.88519","3981.01"
"46.80000","3.90202","3992.42"
"47.00000","3.91805","4003.77"
"47.20000","3.93518","4014.99"
"47.40000","3.95192","4026.53"
"47.60000","3.96825","4037.56"
"47.80000","3.98488","4048.65"
"48.00000","4.00191","4059.4"
"48.20000","4.01854","4070.37"
"48.40000","4.03497","4079.24"
"48.60000","4.05180","4089.28"
"48.80000","4.06853","4098.99"
"49.00000","4.08486","4106.84"
"49.20000","4.10170","4114.94"
"49.40000","4.11883","4122.33"
"49.60000","4.13496","4128.35"
"49.80000","4.15169","4133.96"
"50.00000","4.16872","4138.54"
"50.20000","4.18535","4142.26"
"50.40000","4.20148","4142.65"
"50.60000","4.21852","4143.84"
"50.80000","4.23535","4143.03"
"51.00000","4.25158","4140.91"
"51.20000","4.26801","4135.73"
"51.40000","4.28514","4131.49"
"51.60000","4.30177","4122.41"
"51.80000","4.31800","4111.36"
"52.00000","4.33544","4096.97"
"52.20000","4.35197","4077.53"
"52.40000","4.36819","4051.76"
"52.60000","4.38513","4016.4"
"52.80000","4.40186","3947.68"
"52.91800","4.41184","3461.89"
"52.92600","4.41264","2667.55"
"52.93000","4.41305","2225.07"

File: Sequence_49.csv
General : Start date,"11/5/2024 8:30 AM"
General : End date,"11/5/2024 8:31 AM"
Specimen notes : Specimen note 1,"Day 3, purple, 230, batch 14, seq 49"
Test : Rate 1,"5.00000",mm/min

Time,Extension,Load
(s),(mm),(N)
"0.00000","0.00010","-0.15701"
"0.20000","0.00927","5.99209"
"0.40000","0.03125","46.68366"
"0.60000","0.04878","78.97036"
"0.80000","0.06662","110.791"
"1.00000","0.08346","140.631"
"1.20000","0.10009","169.84"
"1.40000","0.11682","198.719"
"1.60000","0.13375","227.747"
"1.80000","0.15018","253.34"
"2.00000","0.16651","280.647"
"2.20000","0.18385","307.415"
"2.40000","0.20008","334.669"
"2.60000","0.21650","361.942"
"2.80000","0.23364","389.936"
"3.00000","0.25007","416.816"
"3.20000","0.26670","443.327"
"3.40000","0.28363","469.856"
"3.60000","0.30037","496.673"
"3.80000","0.31690","523.9"
"4.00000","0.33343","548.649"
"4.20000","0.35036","575.379"
"4.40000","0.36709","601.705"
"4.60000","0.38312","626.682"
"4.80000","0.40025","652.078"
"5.00000","0.41708","678.603"
"5.20000","0.43331","701.941"
"5.40000","0.45004","727.064"
"5.60000","0.46698","750.83"
"5.80000","0.48341","773.458"
"6.00000","0.50014","797.676"
"6.20000","0.51707","821.916"
"6.40000","0.53380","845.797"
"6.60000","0.55003","866.5"
"6.80000","0.56676","890.497"
"7.00000","0.58380","911.988"
"7.20000","0.59982","933.525"
"7.40000","0.61645","954.438"
"7.60000","0.63369","976.989"
"7.80000","0.64992","997.898"
"8.00000","0.66625","1018.62"
"8.20000","0.68358","1040.11"
"8.40000","0.70021","1059.52"
"8.60000","0.71674","1080.84"
"8.80000","0.73327","1101.27"
"9.00000","0.75031","1121.94"
"9.20000","0.76714","1141.21"
"9.40000","0.78317","1161.68"
"9.60000","0.80010","1181.22"
"9.80000","0.81693","1202.51"
"10.00000","0.83326","1220.9"
"10.20000","0.85019","1241.36"
"10.40000","0.86693","1261.11"
"10.60000","0.88356","1278.22"
"10.80000","0.89999","1297.04"
"11.00000","0.91692","1315.11"
"11.20000","0.93345","1332.62"
"11.40000","0.94988","1350.34"
"11.60000","0.96651","1368.37"
"11.80000","0.98375","1387.07"
"12.00000","0.99997","1405.83"
"12.20000","1.01691","1424.44"
"12.40000","1.03384","1441.72"
"12.60000","1.05037","1459.83"
"12.80000","1.06670","1476.48"
"13.00000","1.08353","1495.75"
"13.20000","1.10046","1511.75"
"13.40000","1.11649","1527.99"
"13.60000","1.13353","1545.01"
"13.80000","1.15016","1563.24"
"14.00000","1.16689","1579.06"
"14.20000","1.18301","1595.7"
"14.40000","1.20035","1613.49"
"14.60000","1.21718","1629.14"
"14.80000","1.23311","1645.29"
"15.00000","1.25034","1662.51"
"15.20000","1.26698","1679.36"
"15.40000","1.28361","1695.29"
"15.60000","1.29983","1711.85"
"15.80000","1.31707","1729.45"
"16.00000","1.33360","1746.01"
"16.20000","1.34983","1762.67"
"16.40000","1.36686","1779.39"
"16.60000","1.38380","1796.66"
"16.80000","1.39982","1812.82"
"17.00000","1.41696","1830.34"
"17.20000","1.43349","1847.87"
"17.40000","1.45022","1864.93"
"17.60000","1.46675","1881.21"
"17.80000","1.48368","1898.28"
"18.00000","1.50031","1914"
"18.20000","1.51634","1929.71"
"18.40000","1.53327","1945.95"
"18.60000","1.55031","1963.03"
"18.80000","1.56653","1979.96"
"19.00000","1.58337","1996.69"
"19.20000","1.60040","2013.72"
"19.40000","1.61683","2030.75"
"19.60000","1.63316","2046.96"
"19.80000","1.65029","2063.68"
"20.00000","1.66682","2080.52"
"20.20000","1.68346","2097.67"
"20.40000","1.69999","2114.29"
"20.60000","1.71712","2131.11"
"20.80000","1.73325","2147.88"
"21.00000","1.75008","2163.78"
"21.20000","1.76711","2180.72"
"21.40000","1.78344","2197.21"
"21.60000","1.79997","2214.35"
"21.80000","1.81701","2230.43"
"22.00000","1.83364","2247.49"
"22.20000","1.85007","2263.88"
"22.40000","1.86670","2279.47"
"22.60000","1.88343","2296.13"
"22.80000","1.90026","2312.19"
"23.00000","1.91639","2328.88"
"23.20000","1.93383","2344.53"
"23.40000","1.95046","2360.96"
"23.60000","1.96658","2376.09"
"23.80000","1.98342","2392.89"
"24.00000","2.00025","2408.36"
"24.20000","2.01678","2425.21"
"24.40000","2.03331","2441.78"
"24.60000","2.05014","2458.3"
"24.80000","2.06687","2475.15"
"25.00000","2.08340","2490.19"
"25.20000","2.10024","2508.26"
"25.40000","2.11717","2524.82"
"25.60000","2.13360","2541.33"
"25.80000","2.14993","2557.22"
"26.00000","2.16726","2574.31"
"26.20000","2.18349","2590.55"
"26.40000","2.19992","2606.15"
"26.60000","2.21686","2623"
"26.80000","2.23349","2639.55"
"27.00000","2.24981","2656.81"
"27.20000","2.26675","2673.47"
"27.40000","2.28358","2690.87"
"27.60000","2.30031","2707.45"
"27.80000","2.31654","2722.89"
"28.00000","2.33368","2739.86"
"28.20000","2.35051","2755.83"
"28.40000","2.36643","2771.91"
"28.60000","2.38387","2789.82"
"28.80000","2.40050","2805.48"
"29.00000","2.41683","2821.71"
"29.20000","2.43316","2836.23"
"29.40000","2.44999","2853.79"
"29.60000","2.46662","2869.59"
"29.80000","2.48305","2886.77"
"30.00000","2.50019","2903.26"
"30.20000","2.51712","2920.81"
"30.40000","2.53335","2935.83"
"30.60000","2.54998","2951.89"
"30.80000","2.56721","2969.16"
"31.00000","2.58344","2983.85"
"31.20000","2.59997","3000.18"
"31.40000","2.61691","3017.38"
"31.60000","2.63374","3032.79"
"31.80000","2.64966","3048.93"
"32.00000","2.66690","3065.29"
"32.20000","2.68383","3082.27"
"32.40000","2.70016","3097.71"
"32.60000","2.71669","3113.14"
"32.80000","2.73372","3131.03"
"33.00000","2.75015","3146.06"
"33.20000","2.76648","3161.34"
"33.40000","2.78372","3177.14"
"33.60000","2.80015","3193.37"
"33.80000","2.81658","3207.74"
"34.00000","2.83361","3224.44"
"34.20000","2.85034","3238.91"
"34.40000","2.86697","3255.06"
"34.60000","2.88330","3270.92"
"34.80000","2.90034","3286.24"
"35.00000","2.91697","3300.31"
"35.20000","2.93309","3315.91"
"35.40000","2.95013","3331.72"
"35.60000","2.96716","3346.75"
"35.80000","2.98339","3360.52"
"36.00000","3.00012","3375.62"
"36.20000","3.01695","3389.39"
"36.40000","3.03349","3403.12"
"36.60000","3.05002","3415.59"
"36.80000","3.06685","3428.21"
"37.00000","3.08368","3442.21"
"37.20000","3.10001","3454.34"
"37.40000","3.11674","3465.56"
"37.60000","3.13367","3476.94"
"37.80000","3.15020","3487.28"
"38.00000","3.16643","3495.64"
"38.20000","3.18387","3503.99"
"38.40000","3.20040","3508.02"
"38.60000","3.21653","3507.98"
"38.80000","3.23346","3487.49"
"38.83400","3.23648","2831.66"
"38.84200","3.23739","2048.28"