Folder: 3D-Filament-Dyes/Data_Processing/Tensile-Data (part 20)

File: Sequence_59.csv
General : Start date,"11/5/2024 8:52 AM"
General : End date,"11/5/2024 8:53 AM"
Specimen notes : Specimen note 1,"Day 3, red, 230, batch 15, seq 59"
Test : Rate 1,"5.00000",mm/min

Time,Extension,Load
(s),(mm),(N)
"0.00000","0.00010","-0.52706"
"0.20000","0.01300","16.16750"
"0.40000","0.03457","63.41560"
"0.60000","0.05140","93.65182"
"0.80000","0.06854","124.348"
"1.00000","0.08547","155.378"
"1.20000","0.10231","185.253"
"1.40000","0.11873","213.636"
"1.60000","0.13587","241.088"
"1.80000","0.15240","268.562"
"2.00000","0.16863","294.825"
"2.20000","0.18546","323.546"
"2.40000","0.20239","352.912"
"2.60000","0.21862","380.72"
"2.80000","0.23525","409.205"
"3.00000","0.25229","437.693"
"3.20000","0.26882","464.389"
"3.40000","0.28504","490.828"
"3.60000","0.30228","517.874"
"3.80000","0.31881","544.219"
"4.00000","0.33534","570.362"
"4.20000","0.35207","594.955"
"4.40000","0.36890","622.822"
"4.60000","0.38554","647.5"
"4.80000","0.40196","671.471"
"5.00000","0.41890","696.086"
"5.20000","0.43553","718.032"
"5.40000","0.45176","742.328"
"5.60000","0.46879","765.539"
"5.80000","0.48572","789.72"
"6.00000","0.50165","812.756"
"6.20000","0.51868","836.669"
"6.40000","0.53552","859.887"
"6.60000","0.55205","882.873"
"6.80000","0.56858","905.093"
"7.00000","0.58561","927.55"
"7.20000","0.60254","950.321"
"7.40000","0.61867","971.599"
"7.60000","0.63560","993.649"
"7.80000","0.65224","1015"
"8.00000","0.66866","1036.97"
"8.20000","0.68520","1057.56"
"8.40000","0.70223","1078.94"
"8.60000","0.71886","1099.06"
"8.80000","0.73499","1118.91"
"9.00000","0.75222","1139.2"
"9.20000","0.76855","1159.42"
"9.40000","0.78548","1179.16"
"9.60000","0.80201","1197.89"
"9.80000","0.81905","1217.87"
"10.00000","0.83558","1237.36"
"10.20000","0.85191","1255.33"
"10.40000","0.86884","1274.98"
"10.60000","0.88567","1292.1"
"10.80000","0.90180","1309.94"
"11.00000","0.91863","1327.6"
"11.20000","0.93547","1346.47"
"11.40000","0.95159","1363.97"
"11.60000","0.96843","1381.29"
"11.80000","0.98526","1400.94"
"12.00000","1.00229","1420.18"
"12.20000","1.01862","1437.16"
"12.40000","1.03545","1456.43"
"12.60000","1.05229","1472.47"
"12.80000","1.06861","1492.12"
"13.00000","1.08535","1509.44"
"13.20000","1.10218","1527.64"
"13.40000","1.11901","1545.74"
"13.60000","1.13514","1561.96"
"13.80000","1.15217","1578.79"
"14.00000","1.16860","1595.11"
"14.20000","1.18553","1611.61"
"14.40000","1.20206","1628.55"
"14.60000","1.21880","1645.61"
"14.80000","1.23543","1661.89"
"15.00000","1.25166","1678.05"
"15.20000","1.26909","1696.27"
"15.40000","1.28552","1711.99"
"15.60000","1.30205","1729.09"
"15.80000","1.31888","1745.22"
"16.00000","1.33582","1761.27"
"16.20000","1.35195","1778.85"
"16.40000","1.36868","1794.84"
"16.60000","1.38561","1812.61"
"16.80000","1.40224","1829.54"
"17.00000","1.41837","1845.3"
"17.20000","1.43550","1863.37"
"17.40000","1.45244","1879.57"
"17.60000","1.46836","1896.26"
"17.80000","1.48540","1913.29"
"18.00000","1.50243","1929.54"
"18.20000","1.51886","1947.27"
"18.40000","1.53529","1962.34"
"18.60000","1.55222","1979.85"
"18.80000","1.56895","1997.09"
"19.00000","1.58528","2014.5"
"19.20000","1.60211","2032.08"
"19.40000","1.61885","2047.53"
"19.60000","1.63538","2066.4"
"19.80000","1.65181","2083.75"
"20.00000","1.66904","2100.39"
"20.20000","1.68537","2118.39"
"20.40000","1.70180","2135.18"
"20.60000","1.71893","2153.07"
"20.80000","1.73546","2169.54"
"21.00000","1.75199","2185.79"
"21.20000","1.76883","2203.49"
"21.40000","1.78566","2220.51"
"21.60000","1.80199","2237.14"
"21.80000","1.81842","2253.59"
"22.00000","1.83545","2270.5"
"22.20000","1.85218","2288.17"
"22.40000","1.86831","2304.43"
"22.60000","1.88555","2322.47"
"22.80000","1.90208","2338.13"
"23.00000","1.91861","2355.13"
"23.20000","1.93534","2371.25"
"23.40000","1.95217","2389.42"
"23.60000","1.96890","2404.51"
"23.80000","1.98533","2421.47"
"24.00000","2.00216","2438.46"
"24.20000","2.01859","2455.82"
"24.40000","2.03533","2472.68"
"24.60000","2.05196","2489.74"
"24.80000","2.06919","2505.7"
"25.00000","2.08532","2523.03"
"25.20000","2.10205","2538.53"
"25.40000","2.11888","2555.81"
"25.60000","2.13541","2572.15"
"25.80000","2.15174","2588.51"
"26.00000","2.16868","2606.84"
"26.20000","2.18571","2623.72"
"26.40000","2.20194","2639.93"
"26.60000","2.21857","2656.44"
"26.80000","2.23570","2674.15"
"27.00000","2.25233","2691.16"
"27.20000","2.26836","2706.32"
"27.40000","2.28550","2723.36"
"27.60000","2.30203","2740.81"
"27.80000","2.31846","2756.4"
"28.00000","2.33549","2773.19"
"28.20000","2.35202","2791.39"
"28.40000","2.36905","2807.94"
"28.60000","2.38518","2823.67"
"28.80000","2.40242","2840.77"
"29.00000","2.41905","2857.1"
"29.20000","2.43517","2873.85"
"29.40000","2.45211","2892.5"
"29.60000","2.46904","2909.2"
"29.80000","2.48517","2926.24"
"30.00000","2.50210","2943.58"
"30.20000","2.51893","2960.72"
"30.40000","2.53516","2976.91"
"30.60000","2.55169","2993"
"30.80000","2.56883","3011.16"
"31.00000","2.58566","3026.92"
"31.20000","2.60189","3044.35"
"31.40000","2.61872","3061.85"
"31.60000","2.63565","3078.76"
"31.80000","2.65208","3096.81"
"32.00000","2.66851","3113.67"
"32.20000","2.68585","3130.75"
"32.40000","2.70228","3147.95"
"32.60000","2.71840","3163.91"
"32.80000","2.73544","3181.81"
"33.00000","2.75187","3197.37"
"33.20000","2.76860","3215.22"
"33.40000","2.78503","3231"
"33.60000","2.80226","3249.06"
"33.80000","2.81879","3265.72"
"34.00000","2.83512","3282.41"
"34.20000","2.85226","3300.42"
"34.40000","2.86879","3316.83"
"34.60000","2.88522","3332.8"
"34.80000","2.90215","3349.91"
"35.00000","2.91898","3366.58"
"35.20000","2.93541","3383.97"
"35.40000","2.95194","3397.63"
"35.60000","2.96898","3415.44"
"35.80000","2.98571","3432.07"
"36.00000","3.00184","3448.48"
"36.20000","3.01877","3465.84"
"36.40000","3.03550","3482.06"
"36.60000","3.05183","3498.55"
"36.80000","3.06866","3515.2"
"37.00000","3.08570","3532.07"
"37.20000","3.10213","3548.37"
"37.40000","3.11855","3563.44"
"37.60000","3.13559","3579.92"
"37.80000","3.15232","3596.64"
"38.00000","3.16885","3611"
"38.20000","3.18518","3626.78"
"38.40000","3.20231","3643.56"
"38.60000","3.21874","3659.37"
"38.80000","3.23497","3674.93"
"39.00000","3.25211","3692.89"
"39.20000","3.26884","3708.44"
"39.40000","3.28517","3724.76"
"39.60000","3.30230","3739.81"
"39.80000","3.31893","3756.04"
"40.00000","3.33516","3770.74"
"40.20000","3.35199","3785.79"
"40.40000","3.36903","3801.51"
"40.60000","3.38566","3817.23"
"40.80000","3.40179","3831.05"
"41.00000","3.41882","3847.08"
"41.20000","3.43575","3860.94"
"41.40000","3.45168","3876.23"
"41.60000","3.46881","3891.33"
"41.80000","3.48565","3907.31"
"42.00000","3.50218","3922.19"
"42.20000","3.51840","3935.27"
"42.40000","3.53554","3951.48"
"42.60000","3.55227","3965.82"
"42.80000","3.56870","3980.17"
"43.00000","3.58533","3994.23"
"43.20000","3.60236","4007.65"
"43.40000","3.61869","4022.22"
"43.60000","3.63522","4034.23"
"43.80000","3.65246","4048.63"
"44.00000","3.66859","4062.55"
"44.20000","3.68502","4073.67"
"44.40000","3.70215","4088.18"
"44.60000","3.71878","4101.84"
"44.80000","3.73491","4113.06"
"45.00000","3.75204","4126.99"
"45.20000","3.76918","4139.16"
"45.40000","3.78561","4150.71"
"45.60000","3.80173","4161.38"
"45.80000","3.81887","4174.43"
"46.00000","3.83570","4185.33"
"46.20000","3.85183","4196.11"
"46.40000","3.86876","4206.88"
"46.60000","3.88570","4216.27"
"46.80000","3.90212","4225.36"
"47.00000","3.91876","4232.54"
"47.20000","3.93539","4240.31"
"47.40000","3.95222","4247.65"
"47.60000","3.96845","4252.66"
"47.80000","3.98558","4256.81"
"48.00000","4.00221","4258.82"
"48.20000","4.01854","4259.86"
"48.40000","4.03537","4259.28"
"48.60000","4.05251","4255.13"
"48.80000","4.06864","4250.92"
"49.00000","4.08537","4242.35"
"49.20000","4.10220","4232.33"
"49.40000","4.11853","4217.4"
"49.60000","4.13506","4200.49"
"49.80000","4.15199","4180.58"
"50.00000","4.16893","4155.81"
"50.20000","4.18546","4126.04"
"50.40000","4.20199","4089.4"
"50.60000","4.21912","4044.77"
"50.80000","4.23565","3984.62"
"51.00000","4.25188","3886.23"
"51.12600","4.26287","3471.58"
"51.13400","4.26367","2736.18"
"51.13800","4.26407","2305.4"

File: Sequence_60.csv
General : Start date,"11/5/2024 8:54 AM"
General : End date,"11/5/2024 8:55 AM"
Specimen notes : Specimen note 1,"Day 3, green, 230, batch 15, seq 60"
Test : Rate 1,"5.00000",mm/min

Time,Extension,Load
(s),(mm),(N)
"0.00000","-0.00010","1.39060"
"0.20000","0.01018","11.55448"
"0.40000","0.03205","55.79150"
"0.60000","0.04969","86.72584"
"0.80000","0.06662","116.545"
"1.00000","0.08326","143.91"
"1.20000","0.10009","173.753"
"1.40000","0.11682","201.041"
"1.60000","0.13355","228.861"
"1.80000","0.15008","254.928"
"2.00000","0.16722","281.813"
"2.20000","0.18365","308.501"
"2.40000","0.19997","335.242"
"2.60000","0.21681","363.602"
"2.80000","0.23374","391.665"
"3.00000","0.24997","417.74"
"3.20000","0.26670","444.691"
"3.40000","0.28363","472.218"
"3.60000","0.30006","497.424"
"3.80000","0.31649","523.19"
"4.00000","0.33363","549.899"
"4.20000","0.35006","574.36"
"4.40000","0.36679","600.586"
"4.60000","0.38352","625.934"
"4.80000","0.40015","651.69"
"5.00000","0.41688","676.949"
"5.20000","0.43321","700.756"
"5.40000","0.45035","725.834"
"5.60000","0.46698","748.827"
"5.80000","0.48310","771.811"
"6.00000","0.50014","796.496"
"6.20000","0.51697","819.756"
"6.40000","0.53300","842.129"
"6.60000","0.55003","864.94"
"6.80000","0.56676","889.358"
"7.00000","0.58329","910.797"
"7.20000","0.59992","933.168"
"7.40000","0.61706","955.133"
"7.60000","0.63379","977.42"
"7.80000","0.65012","998.64"
"8.00000","0.66695","1019.24"
"8.20000","0.68368","1040.55"
"8.40000","0.70001","1060.25"
"8.60000","0.71644","1080.85"
"8.80000","0.73368","1101.86"
"9.00000","0.75021","1123.04"
"9.20000","0.76623","1140.63"
"9.40000","0.78357","1162.24"
"9.60000","0.79990","1181.32"
"9.80000","0.81673","1201.55"
"10.00000","0.83336","1221.46"
"10.20000","0.85050","1240.45"
"10.40000","0.86683","1259.49"
"10.60000","0.88325","1276.77"
"10.80000","0.90029","1296.69"
"11.00000","0.91692","1312.91"
"11.20000","0.93305","1330.48"
"11.40000","0.95008","1347.79"
"11.60000","0.96681","1366.15"
"11.80000","0.98284","1383.34"
"12.00000","0.99997","1398.46"
"12.20000","1.01681","1417.18"
"12.40000","1.03354","1433.38"
"12.60000","1.04987","1449.9"
"12.80000","1.06680","1466.37"
"13.00000","1.08373","1484.24"
"13.20000","1.09976","1498.82"
"13.40000","1.11669","1516.91"
"13.60000","1.13353","1532.53"
"13.80000","1.15016","1549.63"
"14.00000","1.16648","1565.76"
"14.20000","1.18362","1582.28"
"14.40000","1.19995","1599.07"
"14.60000","1.21668","1614.79"
"14.80000","1.23341","1632.14"
"15.00000","1.25004","1649.05"
"15.20000","1.26677","1665.83"
"15.40000","1.28310","1681.39"
"15.60000","1.30044","1700.06"
"15.80000","1.31677","1716.6"
"16.00000","1.33350","1732.81"
"16.20000","1.35033","1750.19"
"16.40000","1.36706","1766.76"
"16.60000","1.38319","1783.76"
"16.80000","1.40012","1799.42"
"17.00000","1.41696","1818.06"
"17.20000","1.43349","1834.15"
"17.40000","1.44971","1850.54"
"17.60000","1.46685","1869.19"
"17.80000","1.48378","1885.23"
"18.00000","1.49971","1900.74"
"18.20000","1.51684","1917.01"
"18.40000","1.53368","1934.47"
"18.60000","1.55011","1948.61"
"18.80000","1.56674","1964.98"
"19.00000","1.58357","1980.65"
"19.20000","1.60030","1998.26"
"19.40000","1.61653","2014.11"
"19.60000","1.63346","2031.77"
"19.80000","1.65019","2047.97"
"20.00000","1.66672","2064.45"
"20.20000","1.68325","2080.59"
"20.40000","1.70039","2097.41"
"20.60000","1.71672","2112.24"
"20.80000","1.73315","2128.55"
"21.00000","1.75028","2145.15"
"21.20000","1.76681","2161.71"
"21.40000","1.78324","2177.15"
"21.60000","1.80017","2193.7"
"21.80000","1.81711","2209.69"
"22.00000","1.83323","2224.49"
"22.20000","1.84966","2239.54"
"22.40000","1.86670","2257.95"
"22.60000","1.88333","2274.61"
"22.80000","1.89946","2290.04"
"23.00000","1.91699","2307.31"
"23.20000","1.93352","2323.29"
"23.40000","1.94995","2339.52"
"23.60000","1.96679","2354.75"
"23.80000","1.98342","2371.59"
"24.00000","2.00015","2387.22"
"24.20000","2.01668","2403.82"
"24.40000","2.03371","2419.92"
"24.60000","2.05004","2435.77"
"24.80000","2.06667","2450.55"
"25.00000","2.08340","2468.09"
"25.20000","2.10054","2484.41"
"25.40000","2.11646","2498.77"
"25.60000","2.13340","2514.42"
"25.80000","2.15013","2529.74"
"26.00000","2.16686","2547.03"
"26.20000","2.18319","2560.42"
"26.40000","2.19982","2577.18"
"26.60000","2.21696","2593.89"
"26.80000","2.23328","2609.43"
"27.00000","2.25002","2624.94"
"27.20000","2.26705","2641.83"
"27.40000","2.28358","2657.08"
"27.60000","2.29991","2673.14"
"27.80000","2.31694","2689.26"
"28.00000","2.33337","2704.41"
"28.20000","2.34970","2720.27"
"28.40000","2.36694","2735.63"
"28.60000","2.38337","2752.47"
"28.80000","2.40040","2767.49"
"29.00000","2.41663","2783.43"
"29.20000","2.43376","2799.3"
"29.40000","2.45029","2815.02"
"29.60000","2.46652","2828.35"
"29.80000","2.48345","2845.06"
"30.00000","2.50039","2862.33"
"30.20000","2.51662","2876.94"
"30.40000","2.53345","2892.46"
"30.60000","2.55018","2909.21"
"30.80000","2.56661","2923.53"
"31.00000","2.58314","2938.24"
"31.20000","2.59997","2954.7"
"31.40000","2.61691","2969.45"
"31.60000","2.63323","2984.4"
"31.80000","2.65017","3000.5"
"32.00000","2.66710","3015.47"
"32.20000","2.68333","3031.79"
"32.40000","2.69996","3046.09"
"32.60000","2.71730","3063.21"
"32.80000","2.73352","3076.13"
"33.00000","2.74965","3091.94"
"33.20000","2.76679","3106.98"
"33.40000","2.78332","3121.86"
"33.60000","2.79995","3135.92"
"33.80000","2.81638","3150.2"
"34.00000","2.83371","3167.83"
"34.20000","2.85014","3180.92"
"34.40000","2.86647","3196.23"
"34.60000","2.88371","3210.21"
"34.80000","2.90034","3225.71"
"35.00000","2.91646","3237.65"
"35.20000","2.93340","3254.06"
"35.40000","2.95043","3268.98"
"35.60000","2.96656","3283.63"
"35.80000","2.98329","3298.12"
"36.00000","3.00042","3313.03"
"36.20000","3.01706","3327.94"
"36.40000","3.03308","3340.48"
"36.60000","3.05012","3356.19"
"36.80000","3.06685","3369.82"
"37.00000","3.08318","3384.4"
"37.20000","3.10021","3397.98"
"37.40000","3.11694","3412.13"
"37.60000","3.13357","3425.89"
"37.80000","3.15000","3439.78"
"38.00000","3.16704","3453.82"
"38.20000","3.18357","3467.93"
"38.40000","3.20020","3482.72"
"38.60000","3.21663","3495.68"
"38.80000","3.23366","3511.03"
"39.00000","3.24989","3523.26"
"39.20000","3.26642","3537.71"
"39.40000","3.28365","3552.63"
"39.60000","3.30008","3565.67"
"39.80000","3.31661","3578.62"
"40.00000","3.33365","3592.23"
"40.20000","3.35018","3605.57"
"40.40000","3.36661","3617.9"
"40.60000","3.38324","3630.42"
"40.80000","3.40037","3645.68"
"41.00000","3.41690","3658.61"
"41.20000","3.43323","3669.98"
"41.40000","3.45027","3684.38"
"41.60000","3.46690","3696.31"
"41.80000","3.48292","3708.01"
"42.00000","3.50026","3720.77"
"42.20000","3.51699","3733.58"
"42.40000","3.53352","3743.41"
"42.60000","3.54985","3754.98"
"42.80000","3.56699","3766.97"
"43.00000","3.58372","3778.83"
"43.20000","3.60005","3788.54"
"43.40000","3.61688","3798.85"
"43.60000","3.63371","3808.55"
"43.80000","3.65004","3816.89"
"44.00000","3.66657","3825.83"
"44.20000","3.68381","3835.07"
"44.40000","3.69983","3842.26"
"44.60000","3.71646","3848.49"
"44.80000","3.73319","3857.06"
"45.00000","3.75013","3863.06"
"45.20000","3.76646","3866.7"
"45.40000","3.78349","3870.94"
"45.60000","3.80042","3875.08"
"45.80000","3.81675","3875.83"
"46.00000","3.83318","3874.37"
"46.20000","3.85032","3872.63"
"46.40000","3.86705","3866.76"
"46.60000","3.88307","3854.51"
"46.80000","3.90031","3833.67"
"47.00000","3.91704","3790.31"
"47.13800","3.92833","3411.52"
"47.14600","3.92904","2672.43"
"47.15000","3.92954","2245.87"