Folder: 3D-Filament-Dyes/Data_Processing/Tensile-Data (part 8)

File: Sequence_23.csv
General : Start date,"10/29/2024 10:01 AM"
General : End date,"10/29/2024 10:02 AM"
Specimen notes : Specimen note 1,"Day 2, green, 215, batch 4, seq 23"
Test : Rate 1,"5.00000",mm/min

Time,Extension,Load
(s),(mm),(N)
"0.00000","0.00000","0.41978"
"0.20000","0.00947","0.39705"
"0.40000","0.02278","7.44878"
"0.60000","0.04858","52.23818"
"0.80000","0.06572","79.13815"
"1.00000","0.08346","106.339"
"1.20000","0.10009","131.64"
"1.40000","0.11682","154.429"
"1.60000","0.13385","178.379"
"1.80000","0.15018","200.442"
"2.00000","0.16691","220.59"
"2.20000","0.18344","240.833"
"2.40000","0.20058","260.309"
"2.60000","0.21661","278.552"
"2.80000","0.23324","298.16"
"3.00000","0.25047","317.379"
"3.20000","0.26710","336.4"
"3.40000","0.28333","353.056"
"3.60000","0.30057","371.549"
"3.80000","0.31740","388.735"
"4.00000","0.33353","401.776"
"4.20000","0.35036","416.206"
"4.40000","0.36699","429.798"
"4.60000","0.38382","444.275"
"4.80000","0.39995","458.344"
"5.00000","0.41708","473.151"
"5.20000","0.43372","487.025"
"5.40000","0.44994","500.91"
"5.60000","0.46688","515.097"
"5.80000","0.48401","528.895"
"6.00000","0.50034","542.899"
"6.20000","0.51677","556.2"
"6.40000","0.53380","570.69"
"6.60000","0.55043","584.257"
"6.80000","0.56666","597.707"
"7.00000","0.58370","612.738"
"7.20000","0.60023","626.461"
"7.40000","0.61696","640.37"
"7.60000","0.63349","654.147"
"7.80000","0.65052","668.786"
"8.00000","0.66675","682.136"
"8.20000","0.68338","696.357"
"8.40000","0.70031","711.088"
"8.60000","0.71715","726.035"
"8.80000","0.73327","738.314"
"9.00000","0.75021","752.928"
"9.20000","0.76704","767.207"
"9.40000","0.78347","781.404"
"9.60000","0.80020","795.749"
"9.80000","0.81703","809.559"
"10.00000","0.83376","825.163"
"10.20000","0.84999","838.01"
"10.40000","0.86713","853.86"
"10.60000","0.88376","867.658"
"10.80000","0.90029","881.205"
"11.00000","0.91682","895.32"
"11.20000","0.93355","909.485"
"11.40000","0.95018","924.108"
"11.60000","0.96661","937.779"
"11.80000","0.98365","952.883"
"12.00000","1.00038","967.473"
"12.20000","1.01660","980.794"
"12.40000","1.03364","995.06"
"12.60000","1.05057","1010.38"
"12.80000","1.06680","1023.14"
"13.00000","1.08343","1037.66"
"13.20000","1.10046","1051.36"
"13.40000","1.11730","1065.68"
"13.60000","1.13322","1077.74"
"13.80000","1.15006","1093.11"
"14.00000","1.16648","1105.29"
"14.20000","1.18322","1119.04"
"14.40000","1.19995","1133.27"
"14.60000","1.21698","1145.77"
"14.80000","1.23381","1159.62"
"15.00000","1.24974","1172.31"
"15.20000","1.26728","1186.58"
"15.40000","1.28351","1198.68"
"15.60000","1.30034","1211.25"
"15.80000","1.31717","1224.36"
"16.00000","1.33380","1238.11"
"16.20000","1.35013","1250.53"
"16.40000","1.36666","1264.16"
"16.60000","1.38370","1277.01"
"16.80000","1.40053","1289.56"
"17.00000","1.41655","1302.64"
"17.20000","1.43379","1316.21"
"17.40000","1.45042","1330.13"
"17.60000","1.46655","1343.66"
"17.80000","1.48348","1357.73"
"18.00000","1.50041","1370.05"
"18.20000","1.51694","1383.61"
"18.40000","1.53347","1396.58"
"18.60000","1.55021","1410.69"
"18.80000","1.56744","1425.59"
"19.00000","1.58317","1437.1"
"19.20000","1.60040","1452.22"
"19.40000","1.61703","1465.3"
"19.60000","1.63336","1478.53"
"19.80000","1.64989","1492.13"
"20.00000","1.66713","1505.43"
"20.20000","1.68335","1518.84"
"20.40000","1.70009","1532.82"
"20.60000","1.71702","1546.96"
"20.80000","1.73375","1561.68"
"21.00000","1.74998","1574.84"
"21.20000","1.76691","1589.14"
"21.40000","1.78395","1603.48"
"21.60000","1.80038","1618.23"
"21.80000","1.81670","1631.41"
"22.00000","1.83404","1645.3"
"22.20000","1.85037","1659.49"
"22.40000","1.86670","1672.85"
"22.60000","1.88343","1686.6"
"22.80000","1.90016","1701.6"
"23.00000","1.91669","1713.99"
"23.20000","1.93342","1727.79"
"23.40000","1.95036","1741.32"
"23.60000","1.96729","1754.84"
"23.80000","1.98332","1767.82"
"24.00000","2.00035","1783.45"
"24.20000","2.01708","1797.37"
"24.40000","2.03351","1811.35"
"24.60000","2.05014","1824.47"
"24.80000","2.06718","1839.91"
"25.00000","2.08351","1853.84"
"25.20000","2.10004","1867.41"
"25.40000","2.11707","1882.37"
"25.60000","2.13360","1896.47"
"25.80000","2.15003","1910.17"
"26.00000","2.16666","1924.7"
"26.20000","2.18379","1939.03"
"26.40000","2.20043","1953.72"
"26.60000","2.21675","1967.92"
"26.80000","2.23409","1983.07"
"27.00000","2.25032","1996.59"
"27.20000","2.26665","2010.52"
"27.40000","2.28368","2026.29"
"27.60000","2.30051","2041.54"
"27.80000","2.31674","2054.47"
"28.00000","2.33347","2069.8"
"28.20000","2.35031","2083.98"
"28.40000","2.36724","2099.86"
"28.60000","2.38316","2113.32"
"28.80000","2.40040","2128.32"
"29.00000","2.41713","2142.72"
"29.20000","2.43326","2157.37"
"29.40000","2.45019","2172.22"
"29.60000","2.46713","2187.08"
"29.80000","2.48356","2200.26"
"30.00000","2.50019","2215.34"
"30.20000","2.51712","2230.31"
"30.40000","2.53355","2244.49"
"30.60000","2.54988","2257.97"
"30.80000","2.56701","2273.89"
"31.00000","2.58405","2288.42"
"31.20000","2.59997","2301.79"
"31.40000","2.61680","2317.43"
"31.60000","2.63394","2331.62"
"31.80000","2.65007","2345.67"
"32.00000","2.66680","2360.22"
"32.20000","2.68373","2375.55"
"32.40000","2.70077","2389.65"
"32.60000","2.71669","2403.95"
"32.80000","2.73352","2418.39"
"33.00000","2.75036","2433.65"
"33.20000","2.76689","2447.73"
"33.40000","2.78332","2462.32"
"33.60000","2.80025","2477.09"
"33.80000","2.81708","2491.52"
"34.00000","2.83311","2504.91"
"34.20000","2.85034","2520.81"
"34.40000","2.86697","2535.92"
"34.60000","2.88381","2549.65"
"34.80000","2.90044","2564.73"
"35.00000","2.91727","2579.18"
"35.20000","2.93360","2593.22"
"35.40000","2.95013","2608.01"
"35.60000","2.96706","2622.39"
"35.80000","2.98379","2635.97"
"36.00000","3.00002","2651.1"
"36.20000","3.01665","2665.02"
"36.40000","3.03369","2679.94"
"36.60000","3.05002","2693.47"
"36.80000","3.06685","2707.97"
"37.00000","3.08378","2724.46"
"37.20000","3.10041","2738.4"
"37.40000","3.11684","2752.7"
"37.60000","3.13357","2767.48"
"37.80000","3.15051","2781.54"
"38.00000","3.16694","2795.64"
"38.20000","3.18357","2810.5"
"38.40000","3.20040","2825.65"
"38.60000","3.21723","2841.02"
"38.80000","3.23316","2854.19"
"39.00000","3.25039","2868.48"
"39.20000","3.26672","2882.91"
"39.40000","3.28355","2897.43"
"39.60000","3.30008","2911.07"
"39.80000","3.31682","2925.69"
"40.00000","3.33335","2940.22"
"40.20000","3.34988","2953.88"
"40.40000","3.36711","2969.72"
"40.60000","3.38384","2982.79"
"40.80000","3.39997","2996.98"
"41.00000","3.41711","3011"
"41.20000","3.43384","3026.11"
"41.40000","3.44986","3038.42"
"41.60000","3.46670","3053.38"
"41.80000","3.48373","3067.89"
"42.00000","3.50036","3082.61"
"42.20000","3.51659","3095.6"
"42.40000","3.53352","3110.62"
"42.60000","3.55056","3123.83"
"42.80000","3.56658","3136.98"
"43.00000","3.58372","3150.64"
"43.20000","3.60035","3164.32"
"43.40000","3.61708","3179.39"
"43.60000","3.63341","3192.46"
"43.80000","3.65064","3207.08"
"44.00000","3.66687","3219.81"
"44.20000","3.68350","3233.77"
"44.40000","3.70034","3246.27"
"44.60000","3.71707","3260.73"
"44.80000","3.73330","3273.93"
"45.00000","3.74983","3286.54"
"45.20000","3.76716","3301.58"
"45.40000","3.78369","3314.1"
"45.60000","3.80002","3326.59"
"45.80000","3.81716","3340.03"
"46.00000","3.83379","3352.88"
"46.20000","3.85001","3365.12"
"46.40000","3.86705","3379.05"
"46.60000","3.88388","3392.26"
"46.80000","3.90021","3405.01"
"47.00000","3.91694","3417.88"
"47.20000","3.93337","3430.35"
"47.40000","3.95040","3443.57"
"47.60000","3.96653","3456.09"
"47.80000","3.98377","3468.93"
"48.00000","4.00040","3481.55"
"48.20000","4.01683","3494.05"
"48.40000","4.03356","3507.46"
"48.60000","4.05069","3520.17"
"48.80000","4.06712","3532.1"
"49.00000","4.08355","3544.13"
"49.20000","4.10049","3555.22"
"49.40000","4.11702","3567.56"
"49.60000","4.13345","3580.07"
"49.80000","4.14998","3592.68"
"50.00000","4.16701","3604.43"
"50.20000","4.18354","3614.95"
"50.40000","4.19987","3625.38"
"50.60000","4.21721","3637.33"
"50.80000","4.23374","3648.25"
"51.00000","4.25027","3659.1"
"51.20000","4.26690","3670.74"
"51.40000","4.28383","3682.67"
"51.60000","4.30016","3693.27"
"51.80000","4.31689","3704.06"
"52.00000","4.33352","3714.58"
"52.20000","4.35045","3724.64"
"52.40000","4.36648","3734.06"
"52.60000","4.38372","3744.29"
"52.80000","4.40035","3753.54"
"53.00000","4.41647","3763.07"
"53.20000","4.43351","3772.08"
"53.40000","4.45044","3781.58"
"53.60000","4.46687","3789.78"
"53.80000","4.48350","3797.97"
"54.00000","4.50064","3805.63"
"54.20000","4.51717","3813.27"
"54.40000","4.53340","3819.3"
"54.60000","4.55033","3825.7"
"54.80000","4.56716","3832.29"
"55.00000","4.58349","3837.05"
"55.20000","4.60012","3840.74"
"55.40000","4.61726","3843.92"
"55.60000","4.63338","3844.88"
"55.80000","4.64991","3845.33"
"56.00000","4.66705","3843.8"
"56.20000","4.68378","3838.29"
"56.40000","4.70001","3829.08"
"56.60000","4.71704","3811.1"
"56.80000","4.73387","3766.84"
"56.91800","4.74405","3422.93"
"56.92600","4.74476","2693.18"
"56.93200","4.74547","2059.19"

File: Sequence_24.csv
General : Start date,"10/29/2024 10:04 AM"
General : End date,"10/29/2024 10:05 AM"
Specimen notes : Specimen note 1,"Day 2, purple, 215, batch 10, seq 24"
Test : Rate 1,"5.00000",mm/min

Time,Extension,Load
(s),(mm),(N)
"0.00000","0.00010","0.65782"
"0.20000","0.01522","20.75209"
"0.40000","0.03548","59.67447"
"0.60000","0.05251","88.66644"
"0.80000","0.06995","118.031"
"1.00000","0.08688","146.27"
"1.20000","0.10331","171.584"
"1.40000","0.12015","197.464"
"1.60000","0.13668","224.461"
"1.80000","0.15331","249.17"
"2.00000","0.16974","273.954"
"2.20000","0.18677","300.552"
"2.40000","0.20340","324.66"
"2.60000","0.21953","348.541"
"2.80000","0.23646","372.744"
"3.00000","0.25370","396.914"
"3.20000","0.26972","418.979"
"3.40000","0.28656","441.875"
"3.60000","0.30359","463.825"
"3.80000","0.32012","485.425"
"4.00000","0.33625","506.215"
"4.20000","0.35348","529.705"
"4.40000","0.37022","550.926"
"4.60000","0.38644","570.659"
"4.80000","0.40328","591.401"
"5.00000","0.42011","609.193"
"5.20000","0.43664","625.232"
"5.40000","0.45297","643.542"
"5.60000","0.47030","661.765"
"5.80000","0.48693","678.096"
"6.00000","0.50306","694.938"
"6.20000","0.51999","712.64"
"6.40000","0.53683","729.573"
"6.60000","0.55316","746.008"
"6.80000","0.56969","762.719"
"7.00000","0.58672","780.578"
"7.20000","0.60335","797.458"
"7.40000","0.61978","815.712"
"7.60000","0.63681","833.505"
"7.80000","0.65345","849.579"
"8.00000","0.66957","865.561"
"8.20000","0.68651","881.251"
"8.40000","0.70344","900.231"
"8.60000","0.71987","916.724"
"8.80000","0.73660","934.869"
"9.00000","0.75313","949.76"
"9.20000","0.77016","968.287"
"9.40000","0.78629","984.058"
"9.60000","0.80353","1001.7"
"9.80000","0.81986","1018.92"
"10.00000","0.83669","1035.3"
"10.20000","0.85302","1052.16"
"10.40000","0.87025","1070.36"
"10.60000","0.88668","1087.19"
"10.80000","0.90331","1102.81"
"11.00000","0.92004","1119.32"
"11.20000","0.93668","1136.21"
"11.40000","0.95290","1152.81"
"11.60000","0.96974","1169.78"
"11.80000","0.98677","1188.3"
"12.00000","1.00340","1205.35"
"12.20000","1.01963","1221.59"
"12.40000","1.03686","1240.15"
"12.60000","1.05339","1258.21"
"12.80000","1.06972","1274.88"
"13.00000","1.08666","1292.13"
"13.20000","1.10369","1309.03"
"13.40000","1.12002","1326.91"
"13.60000","1.13645","1344.08"
"13.80000","1.15278","1362"
"14.00000","1.16981","1379.47"
"14.20000","1.18604","1396.13"
"14.40000","1.20327","1415.49"
"14.60000","1.22011","1432.02"
"14.80000","1.23644","1448.5"
"15.00000","1.25327","1465.12"
"15.20000","1.27010","1482.81"
"15.40000","1.28663","1499.45"
"15.60000","1.30326","1516.34"
"15.80000","1.32020","1533.76"
"16.00000","1.33683","1550.96"
"16.20000","1.35315","1567.57"
"16.40000","1.36958","1584.59"
"16.60000","1.38692","1601.83"
"16.80000","1.40325","1618.37"
"17.00000","1.41988","1634.61"
"17.20000","1.43691","1652.19"
"17.40000","1.45314","1669.49"
"17.60000","1.46967","1687.27"
"17.80000","1.48681","1703.51"
"18.00000","1.50344","1718.95"
"18.20000","1.51977","1734.76"
"18.40000","1.53660","1751.77"
"18.60000","1.55343","1768.17"
"18.80000","1.57006","1784.57"
"19.00000","1.58629","1801.81"
"19.20000","1.60363","1819.81"
"19.40000","1.62016","1835.23"
"19.60000","1.63618","1851.04"
"19.80000","1.65342","1867.73"
"20.00000","1.66995","1883.36"
"20.20000","1.68638","1899.25"
"20.40000","1.70311","1915.27"
"20.60000","1.72004","1931.06"
"20.80000","1.73657","1946.8"
"21.00000","1.75310","1960.85"
"21.20000","1.77024","1977.74"
"21.40000","1.78707","1992.41"
"21.60000","1.80320","2008.32"
"21.80000","1.81993","2023.79"
"22.00000","1.83696","2038.59"
"22.20000","1.85309","2054.68"
"22.40000","1.86972","2068.78"
"22.60000","1.88676","2085.39"
"22.80000","1.90339","2100.66"
"23.00000","1.91972","2116.03"
"23.20000","1.93665","2131.55"
"23.40000","1.95348","2146.69"
"23.60000","1.97001","2161.49"
"23.80000","1.98624","2177.35"
"24.00000","2.00337","2194"
"24.20000","2.02011","2208.97"
"24.40000","2.03633","2223.74"
"24.60000","2.05347","2239.78"
"24.80000","2.06990","2255.4"
"25.00000","2.08663","2270.89"
"25.20000","2.10316","2284.76"
"25.40000","2.12009","2300.92"
"25.60000","2.13642","2315.7"
"25.80000","2.15315","2331.81"
"26.00000","2.16999","2347.65"
"26.20000","2.18702","2363.09"
"26.40000","2.20284","2378.28"
"26.60000","2.21998","2394.66"
"26.80000","2.23701","2409.46"
"27.00000","2.25294","2423.74"
"27.20000","2.26977","2440.3"
"27.40000","2.28681","2456"
"27.60000","2.30344","2471.93"
"27.80000","2.31966","2487.32"
"28.00000","2.33640","2504.16"
"28.20000","2.35363","2519.89"
"28.40000","2.36986","2533.61"
"28.60000","2.38639","2548.86"
"28.80000","2.40352","2563.7"
"29.00000","2.42006","2579.01"
"29.20000","2.43608","2594.3"
"29.40000","2.45372","2610.56"
"29.60000","2.46985","2625.97"
"29.80000","2.48638","2640.62"
"30.00000","2.50331","2656.58"
"30.20000","2.52004","2671.91"
"30.40000","2.53627","2686.69"
"30.60000","2.55300","2701.32"
"30.80000","2.57024","2717.42"
"31.00000","2.58667","2731.86"
"31.20000","2.60269","2746.91"
"31.40000","2.62003","2763.47"
"31.60000","2.63686","2778.82"
"31.80000","2.65299","2793.07"
"32.00000","2.67002","2808.87"
"32.20000","2.68706","2823.77"
"32.40000","2.70359","2838.13"
"32.60000","2.71982","2853.25"
"32.80000","2.73665","2868.83"
"33.00000","2.75348","2884.19"
"33.20000","2.76971","2899.45"
"33.40000","2.78654","2914.08"
"33.60000","2.80327","2929.36"
"33.80000","2.81970","2944.06"
"34.00000","2.83633","2957.88"
"34.20000","2.85367","2973.75"
"34.40000","2.87000","2988.77"
"34.60000","2.88663","3003.72"
"34.80000","2.90356","3019.66"
"35.00000","2.92009","3034.59"
"35.20000","2.93652","3048.36"
"35.40000","2.95315","3063.65"
"35.60000","2.97029","3078.45"
"35.80000","2.98672","3092.73"
"36.00000","3.00284","3106.5"
"36.20000","3.01988","3121.86"
"36.40000","3.03661","3136.12"
"36.60000","3.05294","3150.76"
"36.80000","3.07007","3165.39"
"37.00000","3.08680","3180.12"
"37.20000","3.10334","3193.61"
"37.40000","3.11987","3208.07"
"37.60000","3.13670","3224.86"
"37.80000","3.15383","3237.9"
"38.00000","3.16976","3251.82"
"38.20000","3.18679","3267.18"
"38.40000","3.20352","3281.7"
"38.60000","3.21975","3295.21"
"38.80000","3.23638","3309.28"
"39.00000","3.25352","3323.65"
"39.20000","3.26975","3338.64"
"39.40000","3.28628","3352.13"
"39.60000","3.30311","3366.22"
"39.80000","3.32014","3380.28"
"40.00000","3.33637","3394.49"
"40.20000","3.35320","3408.32"
"40.40000","3.37024","3422.44"
"40.60000","3.38657","3435.96"
"40.80000","3.40310","3449.88"
"41.00000","3.42043","3463.74"
"41.20000","3.43656","3477.58"
"41.40000","3.45289","3490.62"
"41.60000","3.47002","3505.1"
"41.80000","3.48675","3518.53"
"42.00000","3.50308","3532.07"
"42.20000","3.51992","3544.97"
"42.40000","3.53655","3557.57"
"42.60000","3.55348","3570.15"
"42.80000","3.56951","3582.6"
"43.00000","3.58694","3595.89"
"43.20000","3.60337","3608.25"
"43.40000","3.61990","3620.78"
"43.60000","3.63694","3633.61"
"43.80000","3.65347","3645.99"
"44.00000","3.66990","3657.97"
"44.20000","3.68653","3670.28"
"44.40000","3.70346","3682.29"
"44.60000","3.71989","3694.63"
"44.80000","3.73652","3705.57"
"45.00000","3.75325","3717.37"
"45.20000","3.77009","3727.42"
"45.40000","3.78641","3737.47"
"45.60000","3.80335","3748.26"
"45.80000","3.82038","3758.18"
"46.00000","3.83641","3767.48"
"46.20000","3.85324","3775.53"
"46.40000","3.87027","3782.92"
"46.60000","3.88680","3788.61"
"46.80000","3.90323","3794.04"
"47.00000","3.91976","3797.31"
"47.20000","3.93650","3798.52"
"47.40000","3.95323","3794.28"
"47.60000","3.96966","3780"
"47.80000","3.98679","3719.16"
"47.85000","3.99102","3093.19"
"47.85800","3.99193","2284.1"
"47.86000","3.99213","2074.96"

File: Sequence_25.csv
General : Start date,"10/29/2024 10:07 AM"
General : End date,"10/29/2024 10:08 AM"
Specimen notes : Specimen note 1,"Day 2, blue, 215, batch 11, seq 25"
Test : Rate 1,"5.00000",mm/min

Time,Extension,Load
(s),(mm),(N)
"0.00000","0.00000","0.81200"
"0.20000","0.01270","16.40179"
"0.40000","0.03326","55.06246"
"0.60000","0.04989","82.11287"
"0.80000","0.06662","108.094"
"1.00000","0.08386","135.476"
"1.20000","0.10039","162.622"
"1.40000","0.11682","187.835"
"1.60000","0.13385","213.11"
"1.80000","0.15008","237.479"
"2.00000","0.16681","263.198"
"2.20000","0.18324","288.409"
"2.40000","0.20058","314.004"
"2.60000","0.21671","337.715"
"2.80000","0.23324","362.21"
"3.00000","0.25027","385.99"
"3.20000","0.26720","409.277"
"3.40000","0.28313","431.45"
"3.60000","0.30057","455.777"
"3.80000","0.31720","478.677"
"4.00000","0.33322","498.573"
"4.20000","0.35016","521.23"
"4.40000","0.36709","543.181"
"4.60000","0.38382","563.997"
"4.80000","0.39995","584.879"
"5.00000","0.41688","607.181"
"5.20000","0.43372","627.768"
"5.40000","0.44984","647.728"
"5.60000","0.46688","668.504"
"5.80000","0.48401","688.959"
"6.00000","0.50024","706.766"
"6.20000","0.51677","725.273"
"6.40000","0.53380","743.257"
"6.60000","0.55023","760.356"
"6.80000","0.56666","777.245"
"7.00000","0.58360","795.896"
"7.20000","0.60013","812.797"
"7.40000","0.61686","830.454"
"7.60000","0.63339","847.873"
"7.80000","0.65042","865.4"
"8.00000","0.66685","881.638"
"8.20000","0.68338","896.737"
"8.40000","0.70021","914.125"
"8.60000","0.71695","929.35"
"8.80000","0.73327","945.461"
"9.00000","0.75011","962.495"
"9.20000","0.76704","980.176"
"9.40000","0.78357","995.454"
"9.60000","0.80000","1011.48"
"9.80000","0.81693","1027.58"
"10.00000","0.83366","1043.34"
"10.20000","0.84999","1058.77"
"10.40000","0.86713","1075.79"
"10.60000","0.88366","1091.24"
"10.80000","0.90029","1106.6"
"11.00000","0.91672","1121.68"
"11.20000","0.93355","1138.04"
"11.40000","0.95018","1153.21"
"11.60000","0.96641","1169.89"
"11.80000","0.98354","1185.35"
"12.00000","1.00038","1201.4"
"12.20000","1.01660","1217.42"
"12.40000","1.03354","1233.47"
"12.60000","1.05037","1248.91"
"12.80000","1.06670","1264.39"
"13.00000","1.08343","1280.07"
"13.20000","1.10057","1296.06"
"13.40000","1.11710","1311.18"
"13.60000","1.13353","1326.11"
"13.80000","1.14995","1342.8"
"14.00000","1.16648","1356.16"
"14.20000","1.18301","1372.15"
"14.40000","1.19995","1387.56"
"14.60000","1.21688","1404.24"
"14.80000","1.23371","1418.72"
"15.00000","1.24974","1432.83"
"15.20000","1.26718","1449.03"
"15.40000","1.28341","1463.07"
"15.60000","1.30034","1478.91"
"15.80000","1.31707","1494.44"
"16.00000","1.33380","1509.17"
"16.20000","1.35023","1523.56"
"16.40000","1.36656","1538.65"
"16.60000","1.38370","1554.37"
"16.80000","1.40053","1567.97"
"17.00000","1.41645","1583"
"17.20000","1.43359","1597.89"
"17.40000","1.45032","1613.2"
"17.60000","1.46655","1628.86"
"17.80000","1.48348","1644.14"
"18.00000","1.50041","1658.77"
"18.20000","1.51705","1673.52"
"18.40000","1.53337","1688.56"
"18.60000","1.55011","1702.49"
"18.80000","1.56724","1717.76"
"19.00000","1.58327","1732.77"
"19.20000","1.60020","1749.04"
"19.40000","1.61713","1763.4"
"19.60000","1.63346","1777.82"
"19.80000","1.64989","1793.09"
"20.00000","1.66713","1809.01"
"20.20000","1.68325","1824.33"
"20.40000","1.69999","1838.78"
"20.60000","1.71712","1855.25"
"20.80000","1.73365","1869.1"
"21.00000","1.75008","1884.63"
"21.20000","1.76671","1900.16"
"21.40000","1.78395","1916.56"
"21.60000","1.80048","1931.85"
"21.80000","1.81660","1945.68"
"22.00000","1.83394","1961.43"
"22.20000","1.85027","1977.05"
"22.40000","1.86670","1991.47"
"22.60000","1.88343","2006.8"
"22.80000","1.90016","2022.4"
"23.00000","1.91689","2038.56"
"23.20000","1.93332","2053.31"
"23.40000","1.95016","2069.87"
"23.60000","1.96719","2085.14"
"23.80000","1.98322","2098.29"
"24.00000","2.00025","2113.72"
"24.20000","2.01708","2129.23"
"24.40000","2.03341","2144.04"
"24.60000","2.05004","2159.67"
"24.80000","2.06718","2175.61"
"25.00000","2.08340","2191.13"
"25.20000","2.09993","2205.92"
"25.40000","2.11687","2220.42"
"25.60000","2.13370","2235.35"
"25.80000","2.14993","2250.64"
"26.00000","2.16646","2265.72"
"26.20000","2.18379","2281.72"
"26.40000","2.20033","2296.88"
"26.60000","2.21655","2311.19"
"26.80000","2.23409","2326.82"
"27.00000","2.25032","2341.25"
"27.20000","2.26655","2355.53"
"27.40000","2.28368","2371.03"
"27.60000","2.30041","2384.12"
"27.80000","2.31674","2399.94"
"28.00000","2.33337","2416.67"
"28.20000","2.35021","2431.42"
"28.40000","2.36724","2445.35"
"28.60000","2.38316","2461.18"
"28.80000","2.40040","2476.51"
"29.00000","2.41703","2491.01"
"29.20000","2.43326","2505.55"
"29.40000","2.45009","2518.86"
"29.60000","2.46703","2533.94"
"29.80000","2.48356","2548.32"
"30.00000","2.50009","2563.09"
"30.20000","2.51702","2578.16"
"30.40000","2.53365","2593.74"
"30.60000","2.54998","2606.37"
"30.80000","2.56691","2621.34"
"31.00000","2.58395","2636.38"
"31.20000","2.59987","2650.01"
"31.40000","2.61670","2665.43"
"31.60000","2.63384","2680.94"
"31.80000","2.65007","2695.81"
"32.00000","2.66680","2710.67"
"32.20000","2.68363","2724.98"
"32.40000","2.70066","2740.32"
"32.60000","2.71679","2752.93"
"32.80000","2.73362","2767.83"
"33.00000","2.75015","2782.86"
"33.20000","2.76689","2797.86"
"33.40000","2.78321","2811.49"
"33.60000","2.80035","2826.2"
"33.80000","2.81698","2840.8"
"34.00000","2.83321","2855.28"
"34.20000","2.85034","2871.02"
"34.40000","2.86687","2884.37"
"34.60000","2.88371","2898.5"
"34.80000","2.90034","2913.91"
"35.00000","2.91727","2927.69"
"35.20000","2.93370","2941.64"
"35.40000","2.94993","2955.52"
"35.60000","2.96686","2970.73"
"35.80000","2.98379","2984.45"
"36.00000","3.00002","2997.81"
"36.20000","3.01665","3011.51"
"36.40000","3.03369","3026.16"
"36.60000","3.05002","3040.51"
"36.80000","3.06675","3054.1"
"37.00000","3.08368","3068.68"
"37.20000","3.10041","3083.21"
"37.40000","3.11664","3097.16"
"37.60000","3.13347","3111.16"
"37.80000","3.15041","3124.5"
"38.00000","3.16694","3138.07"
"38.20000","3.18337","3151.03"
"38.40000","3.20040","3166.5"
"38.60000","3.21713","3180.14"
"38.80000","3.23316","3193.89"
"39.00000","3.25039","3208.68"
"39.20000","3.26682","3221.81"
"39.40000","3.28335","3236.29"
"39.60000","3.30008","3249.14"
"39.80000","3.31702","3263.52"
"40.00000","3.33345","3276.82"
"40.20000","3.34988","3289.72"
"40.40000","3.36701","3304.32"
"40.60000","3.38384","3317.52"
"40.80000","3.39987","3331.98"
"41.00000","3.41711","3345.3"
"41.20000","3.43394","3358.63"
"41.40000","3.44976","3371.65"
"41.60000","3.46649","3384.2"
"41.80000","3.48363","3398.02"
"42.00000","3.50026","3411.18"
"42.20000","3.51669","3424.42"
"42.40000","3.53332","3438.22"
"42.60000","3.55046","3451.24"
"42.80000","3.56658","3464.18"
"43.00000","3.58362","3478.48"
"43.20000","3.60045","3491.01"
"43.40000","3.61708","3502.98"
"43.60000","3.63321","3515.99"
"43.80000","3.65054","3529.63"
"44.00000","3.66687","3543.01"
"44.20000","3.68360","3555.52"
"44.40000","3.70024","3567.32"
"44.60000","3.71687","3580.15"
"44.80000","3.73319","3592.73"
"45.00000","3.74993","3605.09"
"45.20000","3.76716","3617.6"
"45.40000","3.78369","3629.08"
"45.60000","3.80002","3641.83"
"45.80000","3.81726","3654.92"
"46.00000","3.83379","3666.22"
"46.20000","3.85012","3678.88"
"46.40000","3.86695","3690.61"
"46.60000","3.88378","3702.1"
"46.80000","3.90021","3712.78"
"47.00000","3.91684","3725.48"
"47.20000","3.93337","3737.4"
"47.40000","3.95030","3749.86"
"47.60000","3.96653","3760.69"
"47.80000","3.98367","3772.74"
"48.00000","4.00030","3783.76"
"48.20000","4.01683","3795.25"
"48.40000","4.03336","3806.41"
"48.60000","4.05059","3817.82"
"48.80000","4.06702","3828.11"
"49.00000","4.08345","3838.49"
"49.20000","4.10049","3849.84"
"49.40000","4.11702","3860.73"
"49.60000","4.13314","3870.79"
"49.80000","4.14977","3881.82"
"50.00000","4.16711","3892.33"
"50.20000","4.18354","3901.77"
"50.40000","4.19977","3910.41"
"50.60000","4.21721","3921.36"
"50.80000","4.23384","3930.84"
"51.00000","4.24996","3939.74"
"51.20000","4.26680","3949.22"
"51.40000","4.28373","3958.64"
"51.60000","4.30016","3966.94"
"51.80000","4.31679","3974.54"
"52.00000","4.33352","3982.08"
"52.20000","4.35056","3989.83"
"52.40000","4.36648","3995.57"
"52.60000","4.38372","4002.89"
"52.80000","4.40025","4009.34"
"53.00000","4.41627","4013.13"
"53.20000","4.43341","4018.65"
"53.40000","4.45034","4023.45"
"53.60000","4.46697","4025.72"
"53.80000","4.48340","4028.26"
"54.00000","4.50064","4029.97"
"54.20000","4.51727","4029.66"
"54.40000","4.53319","4027.39"
"54.60000","4.55023","4025.51"
"54.80000","4.56716","4023.95"
"55.00000","4.58349","4017.82"
"55.20000","4.60012","4010.73"
"55.40000","4.61715","4001.96"
"55.60000","4.63338","3988.69"
"55.80000","4.64971","3969.27"
"56.00000","4.66695","3942.95"
"56.20000","4.68378","3888.74"
"56.32000","4.69386","3511.65"
"56.32800","4.69467","2756.57"
"56.33200","4.69507","2319.95"