Folder: 3D-Filament-Dyes/Data_Processing/Tensile-Data (part 19)

File: Sequence_56.csv
General : Start date,"11/5/2024 8:46 AM"
General : End date,"11/5/2024 8:47 AM"
Specimen notes : Specimen note 1,"Day 3, purple, 215, batch 19, seq 56"
Test : Rate 1,"5.00000",mm/min

Time,Extension,Load
(s),(mm),(N)
"0.00000","0.00000","0.54038"
"0.20000","0.00827","-0.03708"
"0.40000","0.02852","32.84824"
"0.60000","0.04868","72.25562"
"0.80000","0.06632","104.437"
"1.00000","0.08315","131.543"
"1.20000","0.10029","162.375"
"1.40000","0.11722","191.675"
"1.60000","0.13325","220.151"
"1.80000","0.15038","249.113"
"2.00000","0.16712","277.739"
"2.20000","0.18324","304.786"
"2.40000","0.20008","332.124"
"2.60000","0.21711","360.198"
"2.80000","0.23364","388.859"
"3.00000","0.24987","415.602"
"3.20000","0.26720","442.831"
"3.40000","0.28363","470.006"
"3.60000","0.30016","496.447"
"3.80000","0.31679","522.95"
"4.00000","0.33373","550.343"
"4.20000","0.34996","577.261"
"4.40000","0.36669","603.648"
"4.60000","0.38382","630.384"
"4.80000","0.40015","656.967"
"5.00000","0.41658","681.351"
"5.20000","0.43361","708.942"
"5.40000","0.44994","734.457"
"5.60000","0.46688","760.207"
"5.80000","0.48361","785.719"
"6.00000","0.50054","812.357"
"6.20000","0.51707","837.617"
"6.40000","0.53340","861.295"
"6.60000","0.55043","887.705"
"6.80000","0.56706","912.178"
"7.00000","0.58329","936.593"
"7.20000","0.60013","960.317"
"7.40000","0.61706","985.098"
"7.60000","0.63359","1009.63"
"7.80000","0.65002","1033.43"
"8.00000","0.66695","1056.82"
"8.20000","0.68338","1079.46"
"8.40000","0.70011","1102.47"
"8.60000","0.71684","1125.86"
"8.80000","0.73378","1148.78"
"9.00000","0.75031","1170.91"
"9.20000","0.76664","1194.08"
"9.40000","0.78377","1218.17"
"9.60000","0.80010","1239.14"
"9.80000","0.81653","1260.26"
"10.00000","0.83356","1282.83"
"10.20000","0.85009","1302.96"
"10.40000","0.86632","1324.26"
"10.60000","0.88356","1345.01"
"10.80000","0.90029","1365.72"
"11.00000","0.91702","1387.58"
"11.20000","0.93335","1407.32"
"11.40000","0.95018","1429.3"
"11.60000","0.96711","1450.04"
"11.80000","0.98314","1470.26"
"12.00000","1.00018","1490.02"
"12.20000","1.01701","1509.81"
"12.40000","1.03344","1530.4"
"12.60000","1.04997","1549.74"
"12.80000","1.06700","1570.23"
"13.00000","1.08343","1588.6"
"13.20000","1.09996","1607.42"
"13.40000","1.11699","1626.07"
"13.60000","1.13353","1644.99"
"13.80000","1.14985","1663.29"
"14.00000","1.16638","1680.22"
"14.20000","1.18402","1698.78"
"14.40000","1.20005","1715.38"
"14.60000","1.21678","1733.77"
"14.80000","1.23381","1751.24"
"15.00000","1.25045","1768.19"
"15.20000","1.26657","1785.53"
"15.40000","1.28361","1804.07"
"15.60000","1.30054","1823.01"
"15.80000","1.31667","1839.78"
"16.00000","1.33330","1857.22"
"16.20000","1.35023","1876.54"
"16.40000","1.36706","1892.54"
"16.60000","1.38309","1909.73"
"16.80000","1.40043","1927.38"
"17.00000","1.41706","1944.16"
"17.20000","1.43329","1961.3"
"17.40000","1.45032","1980.1"
"17.60000","1.46705","1997.16"
"17.80000","1.48358","2014.31"
"18.00000","1.49991","2033.2"
"18.20000","1.51694","2050.75"
"18.40000","1.53358","2067.47"
"18.60000","1.55000","2084.87"
"18.80000","1.56674","2099.66"
"19.00000","1.58377","2118.28"
"19.20000","1.59990","2134.42"
"19.40000","1.61673","2151.47"
"19.60000","1.63376","2167.84"
"19.80000","1.65009","2185.41"
"20.00000","1.66682","2201.54"
"20.20000","1.68366","2218.27"
"20.40000","1.70039","2235.37"
"20.60000","1.71662","2251.28"
"20.80000","1.73315","2267.35"
"21.00000","1.75018","2285.69"
"21.20000","1.76681","2301.18"
"21.40000","1.78314","2318.1"
"21.60000","1.80048","2334.69"
"21.80000","1.81701","2351.36"
"22.00000","1.83334","2366.05"
"22.20000","1.85027","2383.92"
"22.40000","1.86680","2400.84"
"22.60000","1.88353","2416.37"
"22.80000","1.89986","2432.35"
"23.00000","1.91709","2449.68"
"23.20000","1.93342","2464.61"
"23.40000","1.95005","2481.34"
"23.60000","1.96689","2498.11"
"23.80000","1.98382","2515.04"
"24.00000","1.99995","2529.04"
"24.20000","2.01688","2546.88"
"24.40000","2.03361","2562.67"
"24.60000","2.05024","2578.2"
"24.80000","2.06657","2594.08"
"25.00000","2.08351","2610.13"
"25.20000","2.10044","2627.19"
"25.40000","2.11636","2641.87"
"25.60000","2.13380","2660.98"
"25.80000","2.15043","2676.05"
"26.00000","2.16666","2693.07"
"26.20000","2.18329","2708.82"
"26.40000","2.20043","2724.52"
"26.60000","2.21665","2739.95"
"26.80000","2.23308","2755.63"
"27.00000","2.25042","2771.48"
"27.20000","2.26695","2787.76"
"27.40000","2.28358","2803.49"
"27.60000","2.30021","2820.28"
"27.80000","2.31725","2836.05"
"28.00000","2.33357","2853.04"
"28.20000","2.35000","2868.86"
"28.40000","2.36724","2885.89"
"28.60000","2.38377","2902.18"
"28.80000","2.40000","2917.33"
"29.00000","2.41693","2933.56"
"29.20000","2.43346","2948.68"
"29.40000","2.44989","2965.32"
"29.60000","2.46672","2979.47"
"29.80000","2.48356","2995.94"
"30.00000","2.50029","3011.06"
"30.20000","2.51662","3025.63"
"30.40000","2.53365","3042.17"
"30.60000","2.55048","3057.75"
"30.80000","2.56661","3072.63"
"31.00000","2.58354","3088.42"
"31.20000","2.60058","3104.86"
"31.40000","2.61691","3119.56"
"31.60000","2.63303","3133.29"
"31.80000","2.65017","3150.08"
"32.00000","2.66670","3164.36"
"32.20000","2.68333","3178.73"
"32.40000","2.70006","3194.13"
"32.60000","2.71689","3209.63"
"32.80000","2.73342","3225.23"
"33.00000","2.74995","3239.69"
"33.20000","2.76729","3255.7"
"33.40000","2.78352","3270.7"
"33.60000","2.80005","3286.05"
"33.80000","2.81698","3300.58"
"34.00000","2.83381","3315.18"
"34.20000","2.84994","3331.28"
"34.40000","2.86677","3345.18"
"34.60000","2.88391","3360.93"
"34.80000","2.90034","3376.31"
"35.00000","2.91646","3388.15"
"35.20000","2.93370","3404.43"
"35.40000","2.95033","3418.22"
"35.60000","2.96646","3431.99"
"35.80000","2.98359","3447.02"
"36.00000","3.00032","3461.96"
"36.20000","3.01675","3476.88"
"36.40000","3.03349","3490.07"
"36.60000","3.05032","3505.92"
"36.80000","3.06715","3520.43"
"37.00000","3.08338","3533.23"
"37.20000","3.10031","3548.45"
"37.40000","3.11704","3562.25"
"37.60000","3.13327","3575.54"
"37.80000","3.14990","3589.97"
"38.00000","3.16724","3604.82"
"38.20000","3.18347","3617.41"
"38.40000","3.20010","3631.36"
"38.60000","3.21703","3645.48"
"38.80000","3.23366","3657.5"
"39.00000","3.24979","3670.74"
"39.20000","3.26682","3683.63"
"39.40000","3.28386","3697.6"
"39.60000","3.30018","3708.88"
"39.80000","3.31661","3721.35"
"40.00000","3.33365","3732.54"
"40.20000","3.35028","3743.96"
"40.40000","3.36631","3754.61"
"40.60000","3.38384","3764.97"
"40.80000","3.40037","3774.66"
"41.00000","3.41660","3783.73"
"41.20000","3.43354","3790.82"
"41.40000","3.45037","3797.55"
"41.60000","3.46700","3803.63"
"41.80000","3.48333","3807.24"
"42.00000","3.50046","3809.37"
"42.20000","3.51699","3808.6"
"42.40000","3.53332","3803.19"
"42.60000","3.55025","3787.62"
"42.80000","3.56719","3748.32"
"42.92000","3.57676","3374.33"
"42.92800","3.57757","2646.32"
"42.93200","3.57797","2225.08"

File: Sequence_57.csv
General : Start date,"11/5/2024 8:48 AM"
General : End date,"11/5/2024 8:49 AM"
Specimen notes : Specimen note 1,"Day 3, blue, 230, batch 18, seq 57"
Test : Rate 1,"5.00000",mm/min

Time,Extension,Load
(s),(mm),(N)
"0.00000","0.00000","0.83345"
"0.20000","0.01038","11.98300"
"0.40000","0.03246","56.36654"
"0.60000","0.04959","87.54378"
"0.80000","0.06683","116.197"
"1.00000","0.08376","144.887"
"1.20000","0.10009","172.294"
"1.40000","0.11682","198.809"
"1.60000","0.13365","225.751"
"1.80000","0.15038","254.177"
"2.00000","0.16661","279.968"
"2.20000","0.18365","307.801"
"2.40000","0.20048","334.534"
"2.60000","0.21650","360.195"
"2.80000","0.23354","388.715"
"3.00000","0.25027","415.534"
"3.20000","0.26680","441.148"
"3.40000","0.28323","466.717"
"3.60000","0.30037","494.047"
"3.80000","0.31700","519.129"
"4.00000","0.33343","545.05"
"4.20000","0.35016","570.152"
"4.40000","0.36709","596.099"
"4.60000","0.38332","620.807"
"4.80000","0.39985","644.957"
"5.00000","0.41718","670.135"
"5.20000","0.43321","694.175"
"5.40000","0.44984","718.17"
"5.60000","0.46698","742.637"
"5.80000","0.48351","765.196"
"6.00000","0.50014","790.168"
"6.20000","0.51697","812.999"
"6.40000","0.53380","837.08"
"6.60000","0.55033","859.528"
"6.80000","0.56666","880.83"
"7.00000","0.58370","902.416"
"7.20000","0.60043","923.523"
"7.40000","0.61645","945.184"
"7.60000","0.63349","967.053"
"7.80000","0.65032","988.177"
"8.00000","0.66665","1008.51"
"8.20000","0.68328","1029.42"
"8.40000","0.70031","1050.96"
"8.60000","0.71684","1070.55"
"8.80000","0.73348","1090.91"
"9.00000","0.75021","1111.66"
"9.20000","0.76704","1131.81"
"9.40000","0.78347","1150.45"
"9.60000","0.80010","1170.89"
"9.80000","0.81713","1191.46"
"10.00000","0.83326","1210.91"
"10.20000","0.84989","1228.09"
"10.40000","0.86683","1247.38"
"10.60000","0.88336","1265.97"
"10.80000","0.89968","1281.76"
"11.00000","0.91682","1300.48"
"11.20000","0.93355","1317.66"
"11.40000","0.95018","1334.93"
"11.60000","0.96661","1351.86"
"11.80000","0.98365","1369.53"
"12.00000","1.00038","1386.35"
"12.20000","1.01650","1404.33"
"12.40000","1.03364","1422.7"
"12.60000","1.05047","1438.76"
"12.80000","1.06670","1453.89"
"13.00000","1.08343","1471.32"
"13.20000","1.10006","1488.04"
"13.40000","1.11679","1504.22"
"13.60000","1.13322","1520.65"
"13.80000","1.15026","1537.34"
"14.00000","1.16689","1553.46"
"14.20000","1.18322","1569.61"
"14.40000","1.19985","1585.5"
"14.60000","1.21718","1603.38"
"14.80000","1.23341","1618.77"
"15.00000","1.25024","1636.91"
"15.20000","1.26718","1652.22"
"15.40000","1.28361","1668.12"
"15.60000","1.29994","1683.51"
"15.80000","1.31687","1701.52"
"16.00000","1.33380","1717.08"
"16.20000","1.34993","1732.51"
"16.40000","1.36666","1749.99"
"16.60000","1.38349","1765.99"
"16.80000","1.40033","1782.73"
"17.00000","1.41645","1798.84"
"17.20000","1.43379","1816.04"
"17.40000","1.45052","1830.96"
"17.60000","1.46645","1846.62"
"17.80000","1.48378","1862.02"
"18.00000","1.50031","1878.81"
"18.20000","1.51684","1893.88"
"18.40000","1.53317","1909.16"
"18.60000","1.55041","1925.79"
"18.80000","1.56694","1940.8"
"19.00000","1.58317","1957.44"
"19.20000","1.60020","1974.05"
"19.40000","1.61713","1990.13"
"19.60000","1.63326","2005"
"19.80000","1.65019","2020.84"
"20.00000","1.66682","2038.46"
"20.20000","1.68346","2054.18"
"20.40000","1.70009","2069.86"
"20.60000","1.71692","2087.09"
"20.80000","1.73365","2102.38"
"21.00000","1.74978","2118.05"
"21.20000","1.76661","2132.97"
"21.40000","1.78364","2148.91"
"21.60000","1.79987","2163.84"
"21.80000","1.81670","2180.37"
"22.00000","1.83384","2196.32"
"22.20000","1.85027","2213.55"
"22.40000","1.86650","2227.78"
"22.60000","1.88363","2245.8"
"22.80000","1.90006","2260.95"
"23.00000","1.91669","2276.98"
"23.20000","1.93322","2292.96"
"23.40000","1.95036","2309.31"
"23.60000","1.96669","2324.58"
"23.80000","1.98352","2341.02"
"24.00000","2.00035","2356.45"
"24.20000","2.01688","2371.71"
"24.40000","2.03321","2387.68"
"24.60000","2.05034","2402.59"
"24.80000","2.06687","2417.84"
"25.00000","2.08340","2434.36"
"25.20000","2.10014","2448.81"
"25.40000","2.11697","2465.72"
"25.60000","2.13370","2481.08"
"25.80000","2.14983","2496.4"
"26.00000","2.16696","2511.52"
"26.20000","2.18379","2527.91"
"26.40000","2.20002","2542.9"
"26.60000","2.21655","2557.33"
"26.80000","2.23359","2572.82"
"27.00000","2.25012","2588.11"
"27.20000","2.26645","2603.32"
"27.40000","2.28358","2620.05"
"27.60000","2.30021","2635.52"
"27.80000","2.31684","2649.96"
"28.00000","2.33347","2666.44"
"28.20000","2.35041","2681.61"
"28.40000","2.36694","2697.37"
"28.60000","2.38316","2711.52"
"28.80000","2.40050","2727.37"
"29.00000","2.41693","2742.39"
"29.20000","2.43346","2756.96"
"29.40000","2.45019","2772.53"
"29.60000","2.46682","2787.25"
"29.80000","2.48315","2802.52"
"30.00000","2.50009","2817.33"
"30.20000","2.51692","2833.62"
"30.40000","2.53365","2848.43"
"30.60000","2.54988","2863.52"
"30.80000","2.56701","2879.1"
"31.00000","2.58384","2893.66"
"31.20000","2.59987","2909.59"
"31.40000","2.61711","2925.72"
"31.60000","2.63384","2940.16"
"31.80000","2.65017","2954.4"
"32.00000","2.66650","2969.43"
"32.20000","2.68343","2984.79"
"32.40000","2.69996","2999.37"
"32.60000","2.71639","3014.14"
"32.80000","2.73342","3029.89"
"33.00000","2.75026","3045.62"
"33.20000","2.76668","3059.71"
"33.40000","2.78332","3074.29"
"33.60000","2.80055","3089.88"
"33.80000","2.81668","3105.19"
"34.00000","2.83331","3119.73"
"34.20000","2.85044","3136.52"
"34.40000","2.86697","3151.18"
"34.60000","2.88320","3165.37"
"34.80000","2.90014","3180.92"
"35.00000","2.91717","3195.88"
"35.20000","2.93360","3210.59"
"35.40000","2.94993","3224.63"
"35.60000","2.96706","3239.41"
"35.80000","2.98349","3254.8"
"36.00000","2.99972","3269.79"
"36.20000","3.01695","3283.8"
"36.40000","3.03359","3299.14"
"36.60000","3.05002","3313.49"
"36.80000","3.06685","3328.24"
"37.00000","3.08368","3343.83"
"37.20000","3.10041","3356.8"
"37.40000","3.11664","3370.28"
"37.60000","3.13367","3386.21"
"37.80000","3.15031","3400.74"
"38.00000","3.16643","3414.07"
"38.20000","3.18337","3428.88"
"38.40000","3.20040","3443.71"
"38.60000","3.21673","3458.15"
"38.80000","3.23346","3472.01"
"39.00000","3.25039","3485.32"
"39.20000","3.26682","3499.84"
"39.40000","3.28325","3513.22"
"39.60000","3.30029","3527.87"
"39.80000","3.31712","3541.49"
"40.00000","3.33345","3555.58"
"40.20000","3.35008","3568.17"
"40.40000","3.36701","3582.46"
"40.60000","3.38344","3595.61"
"40.80000","3.39967","3606.82"
"41.00000","3.41711","3622.23"
"41.20000","3.43364","3635.81"
"41.40000","3.44996","3648.01"
"41.60000","3.46680","3661.24"
"41.80000","3.48353","3674.4"
"42.00000","3.50046","3687.8"
"42.20000","3.51659","3699.71"
"42.40000","3.53372","3712.81"
"42.60000","3.55035","3724.52"
"42.80000","3.56658","3736.22"
"43.00000","3.58352","3748.3"
"43.20000","3.60045","3760.83"
"43.40000","3.61637","3770.08"
"43.60000","3.63331","3782.61"
"43.80000","3.65024","3792.32"
"44.00000","3.66687","3803.94"
"44.20000","3.68340","3813.61"
"44.40000","3.70024","3825.04"
"44.60000","3.71727","3835.27"
"44.80000","3.73319","3842.84"
"45.00000","3.75013","3853.23"
"45.20000","3.76706","3860.29"
"45.40000","3.78329","3870.49"
"45.60000","3.80012","3877.46"
"45.80000","3.81695","3884.95"
"46.00000","3.83359","3890.88"
"46.20000","3.84991","3896.36"
"46.40000","3.86685","3900.32"
"46.60000","3.88358","3903.02"
"46.80000","3.90021","3905.99"
"47.00000","3.91664","3904.78"
"47.20000","3.93387","3904.55"
"47.40000","3.95020","3899.08"
"47.60000","3.96653","3891.75"
"47.80000","3.98377","3881.96"
"48.00000","4.00030","3866.22"
"48.20000","4.01673","3839.17"
"48.40000","4.03356","3791.43"
"48.57400","4.04817","3412.46"
"48.58200","4.04898","2701.7"
"48.58800","4.04959","2073.06"

File: Sequence_58.csv
General : Start date,"11/5/2024 8:50 AM"
General : End date,"11/5/2024 8:51 AM"
Specimen notes : Specimen note 1,"Day 3, blue, 230, batch 18, seq 58"
Test : Rate 1,"5.00000",mm/min

Time,Extension,Load
(s),(mm),(N)
"0.00000","0.00000","0.04839"
"0.20000","0.01028","11.30294"
"0.40000","0.03215","55.31901"
"0.60000","0.04999","87.44352"
"0.80000","0.06683","115.722"
"1.00000","0.08336","144.939"
"1.20000","0.10059","173.346"
"1.40000","0.11722","200.298"
"1.60000","0.13345","227.235"
"1.80000","0.15028","253.086"
"2.00000","0.16732","279.988"
"2.20000","0.18344","307.292"
"2.40000","0.20008","333.024"
"2.60000","0.21711","360.492"
"2.80000","0.23364","387.884"
"3.00000","0.24977","415.15"
"3.20000","0.26710","441.761"
"3.40000","0.28363","466.564"
"3.60000","0.30016","492.823"
"3.80000","0.31690","517.979"
"4.00000","0.33383","544.398"
"4.20000","0.35046","569.958"
"4.40000","0.36679","595.49"
"4.60000","0.38372","619.849"
"4.80000","0.40035","645.811"
"5.00000","0.41658","669.325"
"5.20000","0.43361","693.758"
"5.40000","0.45055","718.557"
"5.60000","0.46647","740.848"
"5.80000","0.48351","767.342"
"6.00000","0.50024","789.189"
"6.20000","0.51677","813.593"
"6.40000","0.53340","836.29"
"6.60000","0.55043","860.622"
"6.80000","0.56717","882.876"
"7.00000","0.58360","905.444"
"7.20000","0.60043","927.282"
"7.40000","0.61706","949.104"
"7.60000","0.63359","969.507"
"7.80000","0.64992","990.331"
"8.00000","0.66695","1011.82"
"8.20000","0.68368","1032.99"
"8.40000","0.69991","1052.28"
"8.60000","0.71705","1073.41"
"8.80000","0.73327","1093.19"
"9.00000","0.75031","1113.84"
"9.20000","0.76674","1133.25"
"9.40000","0.78387","1154.14"
"9.60000","0.80040","1173.54"
"9.80000","0.81663","1192.82"
"10.00000","0.83356","1212.09"
"10.20000","0.85050","1232.08"
"10.40000","0.86662","1250.17"
"10.60000","0.88336","1269.1"
"10.80000","0.90029","1288.28"
"11.00000","0.91662","1305.31"
"11.20000","0.93315","1322.52"
"11.40000","0.95008","1341.26"
"11.60000","0.96701","1359.56"
"11.80000","0.98344","1376.7"
"12.00000","1.00018","1393.84"
"12.20000","1.01721","1410.37"
"12.40000","1.03354","1425.63"
"12.60000","1.05007","1442.43"
"12.80000","1.06700","1458.5"
"13.00000","1.08373","1476.27"
"13.20000","1.09986","1491.63"
"13.40000","1.11699","1509.56"
"13.60000","1.13353","1524.84"
"13.80000","1.15036","1541.24"
"14.00000","1.16669","1556.89"
"14.20000","1.18372","1573.82"
"14.40000","1.20015","1589.09"
"14.60000","1.21648","1606.1"
"14.80000","1.23371","1622.16"
"15.00000","1.25034","1638.84"
"15.20000","1.26677","1655.26"
"15.40000","1.28371","1671.36"
"15.60000","1.30054","1688.54"
"15.80000","1.31677","1703.85"
"16.00000","1.33340","1720.06"
"16.20000","1.35043","1737.29"
"16.40000","1.36696","1752.88"
"16.60000","1.38319","1769.47"
"16.80000","1.40033","1787.03"
"17.00000","1.41726","1803.52"
"17.20000","1.43308","1819.56"
"17.40000","1.45022","1835.97"
"17.60000","1.46715","1853.2"
"17.80000","1.48368","1867.7"
"18.00000","1.50011","1883.01"
"18.20000","1.51715","1898.88"
"18.40000","1.53358","1915.08"
"18.60000","1.55021","1930.36"
"18.80000","1.56684","1946.53"
"19.00000","1.58367","1961.06"
"19.20000","1.60020","1977.31"
"19.40000","1.61663","1993.55"
"19.60000","1.63376","2010.02"
"19.80000","1.65019","2024.84"
"20.00000","1.66652","2040.42"
"20.20000","1.68356","2057.45"
"20.40000","1.70049","2073.85"
"20.60000","1.71672","2089"
"20.80000","1.73365","2105.66"
"21.00000","1.75038","2120.31"
"21.20000","1.76681","2135.46"
"21.40000","1.78314","2150.79"
"21.60000","1.80007","2165.84"
"21.80000","1.81711","2182.14"
"22.00000","1.83313","2197.2"
"22.20000","1.85047","2213.73"
"22.40000","1.86700","2229.11"
"22.60000","1.88353","2245.16"
"22.80000","1.90006","2260.33"
"23.00000","1.91699","2275.81"
"23.20000","1.93363","2292.17"
"23.40000","1.95005","2306.35"
"23.60000","1.96689","2323.99"
"23.80000","1.98362","2339.64"
"24.00000","2.00015","2354.98"
"24.20000","2.01668","2372.08"
"24.40000","2.03391","2387.54"
"24.60000","2.05014","2403.42"
"24.80000","2.06687","2418.02"
"25.00000","2.08351","2433.69"
"25.20000","2.10044","2449.73"
"25.40000","2.11657","2465.03"
"25.60000","2.13350","2481.79"
"25.80000","2.15043","2497.74"
"26.00000","2.16686","2512.23"
"26.20000","2.18329","2528.23"
"26.40000","2.20043","2545.03"
"26.60000","2.21716","2558.13"
"26.80000","2.23318","2574.63"
"27.00000","2.25032","2589.74"
"27.20000","2.26695","2605.75"
"27.40000","2.28318","2620.48"
"27.60000","2.30021","2636.57"
"27.80000","2.31684","2652.58"
"28.00000","2.33378","2668.11"
"28.20000","2.35000","2682.34"
"28.40000","2.36724","2699.41"
"28.60000","2.38377","2712.74"
"28.80000","2.40000","2728.22"
"29.00000","2.41683","2742.7"
"29.20000","2.43396","2757.43"
"29.40000","2.44999","2772.77"
"29.60000","2.46682","2786.97"
"29.80000","2.48376","2802.11"
"30.00000","2.50009","2816.29"
"30.20000","2.51641","2830.17"
"30.40000","2.53355","2845.35"
"30.60000","2.55048","2861.15"
"30.80000","2.56671","2874.59"
"31.00000","2.58344","2889.66"
"31.20000","2.60048","2905.37"
"31.40000","2.61691","2919.37"
"31.60000","2.63323","2933.5"
"31.80000","2.65067","2949.36"
"32.00000","2.66700","2963.66"
"32.20000","2.68323","2978.45"
"32.40000","2.70026","2991.93"
"32.60000","2.71669","3006.72"
"32.80000","2.73342","3022.35"
"33.00000","2.74975","3035.25"
"33.20000","2.76709","3051.12"
"33.40000","2.78362","3065.2"
"33.60000","2.79995","3080.7"
"33.80000","2.81698","3094.85"
"34.00000","2.83371","3110.43"
"34.20000","2.85004","3124.27"
"34.40000","2.86677","3139.52"
"34.60000","2.88371","3153.46"
"34.80000","2.90024","3167.54"
"35.00000","2.91667","3181.27"
"35.20000","2.93380","3196.27"
"35.40000","2.95063","3210.65"
"35.60000","2.96676","3223.44"
"35.80000","2.98359","3238.8"
"36.00000","3.00032","3253.85"
"36.20000","3.01675","3268.71"
"36.40000","3.03328","3283.57"
"36.60000","3.05042","3297.82"
"36.80000","3.06695","3312.73"
"37.00000","3.08338","3326.84"
"37.20000","3.10041","3340.94"
"37.40000","3.11714","3356.38"
"37.60000","3.13367","3368.03"
"37.80000","3.14990","3383.44"
"38.00000","3.16724","3397.1"
"38.20000","3.18357","3410.62"
"38.40000","3.19959","3422.89"
"38.60000","3.21693","3439.05"
"38.80000","3.23376","3451.94"
"39.00000","3.24999","3466.62"
"39.20000","3.26702","3480.83"
"39.40000","3.28386","3493.75"
"39.60000","3.30008","3507.42"
"39.80000","3.31672","3520.53"
"40.00000","3.33375","3534.49"
"40.20000","3.35058","3548.17"
"40.40000","3.36661","3560.75"
"40.60000","3.38364","3574.75"
"40.80000","3.40058","3587.02"
"41.00000","3.41650","3599.27"
"41.20000","3.43354","3612.28"
"41.40000","3.45047","3623.97"
"41.60000","3.46700","3637.2"
"41.80000","3.48323","3649.68"
"42.00000","3.50036","3662.41"
"42.20000","3.51709","3674.85"
"42.40000","3.53352","3687.33"
"42.60000","3.55015","3697.82"
"42.80000","3.56719","3711.19"
"43.00000","3.58352","3723.04"
"43.20000","3.60005","3733.78"
"43.40000","3.61718","3745.45"
"43.60000","3.63331","3755.75"
"43.80000","3.64974","3766.19"
"44.00000","3.66697","3777.37"
"44.20000","3.68381","3787.87"
"44.40000","3.69983","3797.39"
"44.60000","3.71677","3806.66"
"44.80000","3.73380","3817.64"
"45.00000","3.75043","3824.98"
"45.20000","3.76666","3833.14"
"45.40000","3.78379","3841.66"
"45.60000","3.80042","3848.94"
"45.80000","3.81675","3855.71"
"46.00000","3.83369","3861.61"
"46.20000","3.85042","3867.3"
"46.40000","3.86695","3872.29"
"46.60000","3.88348","3875.43"
"46.80000","3.90011","3877.53"
"47.00000","3.91694","3880.41"
"47.20000","3.93347","3878.72"
"47.40000","3.95030","3877.61"
"47.60000","3.96704","3872.2"
"47.80000","3.98346","3860.01"
"48.00000","3.99999","3840.54"
"48.20000","4.01733","3796.45"
"48.32200","4.02731","3399.76"
"48.33000","4.02812","2653.11"
"48.33400","4.02852","2225.96"